nRepsTask1,nRepsTask2,ImageFile,AnimateInanimate,ValenceScore,Rand,controlTaskOrder.thisRepN,controlTaskOrder.thisTrialN,controlTaskOrder.thisN,controlTaskOrder.thisIndex,part1.thisRepN,part1.thisTrialN,part1.thisN,part1.thisIndex,trialsStudyImages.thisRepN,trialsStudyImages.thisTrialN,trialsStudyImages.thisN,trialsStudyImages.thisIndex,trialsTest1_1.thisRepN,trialsTest1_1.thisTrialN,trialsTest1_1.thisN,trialsTest1_1.thisIndex,part2.thisRepN,part2.thisTrialN,part2.thisN,part2.thisIndex,key_resp.started,WelcomeText.started,key_resp.keys,key_resp.rt,text_2.started,text_2.stopped,key_resp_2.started,ConsentText.started,key_resp_2.keys,key_resp_2.rt,key_resp_3.started,InstructionText.started,key_resp_3.keys,key_resp_3.rt,key_resp_8.started,text_7.started,key_resp_8.keys,key_resp_8.rt,text_4.started,key_resp_4.started,key_resp_4.keys,key_resp_4.rt,image.started,key_resp_7.started,joystick.started,key_resp_7.keys,key_resp_7.corr,key_resp_7.rt,joystick.x,joystick.y,joystick.button_0,joystick.button_1,joystick.button_2,joystick.button_3,joystick.button_4,joystick.button_5,joystick.button_6,joystick.button_7,joystick.button_8,joystick.button_9,joystick.button_10,joystick.time,text_6.started,key_resp_6.started,key_resp_6.keys,key_resp_6.rt,image_2.started,key_resp_9.started,button_resp.started,key_resp_9.keys,key_resp_9.corr,key_resp_9.rt,button_resp.keys,button_resp.stopped,text_8.started,key_resp_13.started,participant,session,group,date,expName,psychopyVersion,frameRate,
,,,,,,,,,,,,,,,,,,,,,,,,,,23.69514340002206,23.69514340002206,space,12.95131709999987,,,,,,,,,,,,,,,,,,,,,,,,,,,,,,,,,,,,,,,,,,,,,,,,,,,,,1,001,A,2022-10-21_18h35.16.481,psychopy,2022.2.4,60.06738358653476,
,,,,,,,,,,,,,,,,,,,,,,,,,,,,,,36.66702350002015,37.16719040001044,37.16719040001044,37.16719040001044,space,0.6152239999792073,,,,,,,,,,,,,,,,,,,,,,,,,,,,,,,,,,,,,,,,,,,,,,,1,001,A,2022-10-21_18h35.16.481,psychopy,2022.2.4,60.06738358653476,
,,,,,,,,,,,,,,,,,,,,,,,,,,,,,,37.800462700019125,38.3003986000258,,,,,38.3003986000258,38.3003986000258,space,0.29865710000740364,,,,,,,,,,,,,,,,,,,,,,,,,,,,,,,,,,,,,,,,,,,1,001,A,2022-10-21_18h35.16.481,psychopy,2022.2.4,60.06738358653476,
,,,,,,,,,,,,,,,,,,,,,,,,,,,,,,38.61710430000676,39.11706660001073,,,,,,,,,39.11706660001073,39.11706660001073,space,0.3924737999914214,,,,,,,,,,,,,,,,,,,,,,,,,,,,,,,,,,,,,,,1,001,A,2022-10-21_18h35.16.481,psychopy,2022.2.4,60.06738358653476,
1,0,Images/Goat 1.jpg,1,,,0,0,0,0,0,0,0,0,0,0,0,0,,,,,,,,,,,,,44.31676530002733,44.81687140002032,,,,,,,,,,,,,40.046061400003964,40.046061400003964,space,2.384444399998756,42.482053700019605,42.482053700019605,0.018096599989803508,1,1,1.8119870999944396,0.0,0.0,0,0,0,0,0,0,0,0,0,0,0,1.8453302000125404,,,,,,,,,,,,,,,1,001,A,2022-10-21_18h35.16.481,psychopy,2022.2.4,60.06738358653476,
1,0,Images/Happy face 2.jpg,1,,,0,0,0,0,0,0,0,0,0,1,1,1,,,,,,,,,,,,,45.10061650001444,45.599966800014954,,,,,,,,,,,,,,,,,44.81687140002032,44.81687140002032,0.006076400022720918,2,0,0.25319789999048226,0.0,0.0,0,0,0,0,0,0,0,0,0,0,0,0.27790810001897626,,,,,,,,,,,,,,,1,001,A,2022-10-21_18h35.16.481,psychopy,2022.2.4,60.06738358653476,
1,0,Images/Lion 1.jpg,1,,,0,0,0,0,0,0,0,0,0,2,2,2,,,,,,,,,,,,,45.78451120000682,46.283371700003045,,,,,,,,,,,,,,,,,45.599966800014954,45.599966800014954,0.0014919999812263995,1,1,0.15914910001447424,0.0,0.0,0,0,0,0,0,0,0,0,0,0,0,0.18126429998665117,,,,,,,,,,,,,,,1,001,A,2022-10-21_18h35.16.481,psychopy,2022.2.4,60.06738358653476,
1,0,Images/Monkey 1.jpg,1,,,0,0,0,0,0,0,0,0,0,3,3,3,,,,,,,,,,,,,46.517198100016685,47.01667940002517,,,,,,,,,,,,,,,,,46.283371700003045,46.283371700003045,-0.00032900000223889947,2,0,0.21161050000227988,0.0,0.0,0,0,0,0,0,0,0,0,0,0,0,0.22931979998247698,,,,,,,,,,,,,,,1,001,A,2022-10-21_18h35.16.481,psychopy,2022.2.4,60.06738358653476,
1,0,Images/Dog 12.jpg,1,,,0,0,0,0,0,0,0,0,0,4,4,4,,,,,,,,,,,,,47.31713770001079,47.819225300016114,,,,,,,,,,,,,,,,,47.01667940002517,47.01667940002517,0.0016563999815844,1,1,0.26912630000151694,0.0,0.0,0,0,0,0,0,0,0,0,0,0,0,0.2965803999977652,,,,,,,,,,,,,,,1,001,A,2022-10-21_18h35.16.481,psychopy,2022.2.4,60.06738358653476,
1,0,Images/Gun 5.jpg,2,,,0,0,0,0,0,0,0,0,0,5,5,5,,,,,,,,,,,,,48.11708160000853,48.617700700007845,,,,,,,,,,,,,,,,,47.819225300016114,47.819225300016114,0.006433799979276955,2,1,0.2662708999996539,0.0,0.0,0,0,0,0,0,0,0,0,0,0,0,0.29132960000424646,,,,,,,,,,,,,,,1,001,A,2022-10-21_18h35.16.481,psychopy,2022.2.4,60.06738358653476,
1,0,Images/Money 1.jpg,2,,,0,0,0,0,0,0,0,0,0,6,6,6,,,,,,,,,,,,,48.866876400017645,49.366929800016806,,,,,,,,,,,,,,,,,48.617700700007845,48.617700700007845,0.005789399991044775,2,1,0.22083350000320934,0.0,0.0,0,0,0,0,0,0,0,0,0,0,0,0.24215730000287294,,,,,,,,,,,,,,,1,001,A,2022-10-21_18h35.16.481,psychopy,2022.2.4,60.06738358653476,
1,0,Images/Office supplies 4.jpg,2,,,0,0,0,0,0,0,0,0,0,7,7,7,,,,,,,,,,,,,49.70106859999942,50.206691300001694,,,,,,,,,,,,,,,,,49.366929800016806,49.366929800016806,0.003145599999697879,2,1,0.3036722000106238,0.0,0.0,0,0,0,0,0,0,0,0,0,0,0,0.33248350000940263,,,,,,,,,,,,,,,1,001,A,2022-10-21_18h35.16.481,psychopy,2022.2.4,60.06738358653476,
1,0,Images/Sidewalk 3.jpg,2,,,0,0,0,0,0,0,0,0,0,8,8,8,,,,,,,,,,,,,50.533462899998995,51.03337270001066,,,,,,,,,,,,,,,,,50.206691300001694,50.206691300001694,0.009453699982259423,2,1,0.29529720000573434,0.0,0.0,0,0,0,0,0,0,0,0,0,0,0,0.31827690001227893,,,,,,,,,,,,,,,1,001,A,2022-10-21_18h35.16.481,psychopy,2022.2.4,60.06738358653476,
1,0,Images/Storage 1.jpg,2,,,0,0,0,0,0,0,0,0,0,9,9,9,,,,,,,,,,,,,51.33403480000561,51.834193500020774,,,,,,,,,,,,,,,,,51.03337270001066,51.03337270001066,0.0012713999894913286,2,1,0.2697276000108104,0.0,0.0,0,0,0,0,0,0,0,0,0,0,0,0.29985740000847727,,,,,,,,,,,,,,,1,001,A,2022-10-21_18h35.16.481,psychopy,2022.2.4,60.06738358653476,
1,0,Images/Miserable pose 1.jpg,1,2.579,0.9842937974063046,0,0,0,0,0,0,0,0,,,,,0,0,0,13,,,,,,,,,58.20052380001289,58.70041830002447,,,,,,,,,,,,,,,,,,,,,,,,,,,,,,,,,,,,,51.834193500020774,51.834193500020774,space,5.3072061999992,57.196992400015006,57.196992400015006,57.196992400015006,1,1,0.9852483000140637,None,,,,1,001,A,2022-10-21_18h35.16.481,psychopy,2022.2.4,60.06738358653476,
1,0,Images/Bird 3.jpg,1,6.0495,0.1352931607121708,0,0,0,0,0,0,0,0,,,,,0,1,1,9,,,,,,,,,60.86665310000535,61.36748540002736,,,,,,,,,,,,,,,,,,,,,,,,,,,,,,,,,,,,,,,,,58.70041830002447,58.70041830002447,58.70041830002447,1,1,2.1380941000243183,None,60.700642800016794,,,1,001,A,2022-10-21_18h35.16.481,psychopy,2022.2.4,60.06738358653476,
1,0,Images/Birthday 3.jpg,2,5.5506,0.46285993459803654,0,0,0,0,0,0,0,0,,,,,0,2,2,1,,,,,,,,,61.43365910000284,61.93409850000171,,,,,,,,,,,,,,,,,,,,,,,,,,,,,,,,,,,,,,,,,61.36748540002736,61.36748540002736,61.36748540002736,2,1,0.046441399987088516,None,,,,1,001,A,2022-10-21_18h35.16.481,psychopy,2022.2.4,60.06738358653476,
1,0,Images/Sidewalk 6.jpg,2,2.7978,0.6052913211298454,0,0,0,0,0,0,0,0,,,,,0,3,3,19,,,,,,,,,62.167275900021195,62.66680100001395,,,,,,,,,,,,,,,,,,,,,,,,,,,,,,,,,,,,,,,,,61.93409850000171,61.93409850000171,61.93409850000171,1,0,0.20777009997982532,None,,,,1,001,A,2022-10-21_18h35.16.481,psychopy,2022.2.4,60.06738358653476,
1,0,Images/Yarn 1.jpg,2,2.5645,0.6029614127731355,0,0,0,0,0,0,0,0,,,,,0,4,4,8,,,,,,,,,62.850146200013114,63.365818500024034,,,,,,,,,,,,,,,,,,,,,,,,,,,,,,,,,,,,,,,,,62.66680100001395,62.66680100001395,62.66680100001395,2,1,0.1553993999841623,None,,,,1,001,A,2022-10-21_18h35.16.481,psychopy,2022.2.4,60.06738358653476,
1,0,Images/Sad pose 1.jpg,1,2.8801,0.568733967121452,0,0,0,0,0,0,0,0,,,,,0,5,5,11,,,,,,,,,63.96737570001278,64.46936820002156,,,,,,,,,,,,,,,,,,,,,,,,,,,,,,,,,,,,,,,,,63.365818500024034,63.365818500024034,63.365818500024034,2,0,0.5840091000136454,None,,,,1,001,A,2022-10-21_18h35.16.481,psychopy,2022.2.4,60.06738358653476,
1,0,Images/Police 5.jpg,1,2.4345,0.07517344267112913,0,0,0,0,0,0,0,0,,,,,0,6,6,3,,,,,,,,,64.75036280002678,65.25105730001815,,,,,,,,,,,,,,,,,,,,,,,,,,,,,,,,,,,,,,,,,64.46936820002156,64.46936820002156,64.46936820002156,2,0,0.2645148000156041,None,,,,1,001,A,2022-10-21_18h35.16.481,psychopy,2022.2.4,60.06738358653476,
1,0,Images/Jail 2.jpg,2,1.9691,0.03865937602444702,0,0,0,0,0,0,0,0,,,,,0,7,7,4,,,,,,,,,65.40023790000123,65.90218470001128,,,,,,,,,,,,,,,,,,,,,,,,,,,,,,,,,,,,,,,,,65.25105730001815,65.25105730001815,65.25105730001815,2,1,0.12291980002191849,None,,,,1,001,A,2022-10-21_18h35.16.481,psychopy,2022.2.4,60.06738358653476,
1,0,Images/Horse 1.jpg,1,5.9469,0.7736589633910252,0,0,0,0,0,0,0,0,,,,,0,8,8,15,,,,,,,,,66.10051030002069,66.60285590001149,,,,,,,,,,,,,,,,,,,,,,,,,,,,,,,,,,,,,,,,,65.90218470001128,65.90218470001128,65.90218470001128,2,0,0.17656590000842698,None,,,,1,001,A,2022-10-21_18h35.16.481,psychopy,2022.2.4,60.06738358653476,
1,0,Images/Explosion 1.jpg,2,2.7061,0.44591947684325695,0,0,0,0,0,0,0,0,,,,,0,9,9,17,,,,,,,,,66.7504696000251,67.2658206000051,,,,,,,,,,,,,,,,,,,,,,,,,,,,,,,,,,,,,,,,,66.60285590001149,66.60285590001149,66.60285590001149,2,1,0.12307929998496547,None,,,,1,001,A,2022-10-21_18h35.16.481,psychopy,2022.2.4,60.06738358653476,
1,0,Images/Toilet 4.jpg,2,2.4986,0.898260773201397,0,0,0,0,0,0,0,0,,,,,0,10,10,7,,,,,,,,,67.35056780002196,67.855188800022,,,,,,,,,,,,,,,,,,,,,,,,,,,,,,,,,,,,,,,,,67.2658206000051,67.2658206000051,67.2658206000051,2,1,0.05275800000526942,None,,,,1,001,A,2022-10-21_18h35.16.481,psychopy,2022.2.4,60.06738358653476,
1,0,Images/Mother 5.jpg,1,5.9438,0.5672645993361737,0,0,0,0,0,0,0,0,,,,,0,11,11,14,,,,,,,,,68.03440450000926,68.54025090002688,,,,,,,,,,,,,,,,,,,,,,,,,,,,,,,,,,,,,,,,,67.855188800022,67.855188800022,67.855188800022,2,0,0.15994000001228414,None,,,,1,001,A,2022-10-21_18h35.16.481,psychopy,2022.2.4,60.06738358653476,
1,0,Images/Baby 6.jpg,1,6.0604,0.39030199076009964,0,0,0,0,0,0,0,0,,,,,0,12,12,5,,,,,,,,,68.63349720000406,69.13362280000001,,,,,,,,,,,,,,,,,,,,,,,,,,,,,,,,,,,,,,,,,68.54025090002688,68.54025090002688,68.54025090002688,2,0,0.06623610001406632,None,,,,1,001,A,2022-10-21_18h35.16.481,psychopy,2022.2.4,60.06738358653476,
1,0,Images/Explosion 4.jpg,2,2.4912,0.7212808895846713,0,0,0,0,0,0,0,0,,,,,0,13,13,18,,,,,,,,,69.2166062000033,69.71656749999966,,,,,,,,,,,,,,,,,,,,,,,,,,,,,,,,,,,,,,,,,69.13362280000001,69.13362280000001,69.13362280000001,2,1,0.06527639998239465,None,,,,1,001,A,2022-10-21_18h35.16.481,psychopy,2022.2.4,60.06738358653476,
1,0,Images/Neonazi 1.jpg,1,2.0577,0.8848283844025013,0,0,0,0,0,0,0,0,,,,,0,14,14,6,,,,,,,,,69.76695160000236,70.26968310002121,,,,,,,,,,,,,,,,,,,,,,,,,,,,,,,,,,,,,,,,,69.71656749999966,69.71656749999966,69.71656749999966,2,0,0.02604799999971874,None,,,,1,001,A,2022-10-21_18h35.16.481,psychopy,2022.2.4,60.06738358653476,
1,0,Images/Fire 7.jpg,2,1.7007,0.6719101083569338,0,0,0,0,0,0,0,0,,,,,0,15,15,0,,,,,,,,,70.30073850002373,70.80242360002012,,,,,,,,,,,,,,,,,,,,,,,,,,,,,,,,,,,,,,,,,70.26968310002121,70.26968310002121,70.26968310002121,2,1,0.00875039998209104,None,,,,1,001,A,2022-10-21_18h35.16.481,psychopy,2022.2.4,60.06738358653476,
1,0,Images/Intensity 1.jpg,1,2.8252,0.36804645311705486,0,0,0,0,0,0,0,0,,,,,0,16,16,16,,,,,,,,,70.95143929999904,71.452243000007,,,,,,,,,,,,,,,,,,,,,,,,,,,,,,,,,,,,,,,,,70.80242360002012,70.80242360002012,70.80242360002012,2,0,0.11630090000107884,None,,,,1,001,A,2022-10-21_18h35.16.481,psychopy,2022.2.4,60.06738358653476,
1,0,Images/Picnic 1.jpg,1,6.0998,0.10131694427212556,0,0,0,0,0,0,0,0,,,,,0,17,17,10,,,,,,,,,71.60015040001599,72.09993380002561,,,,,,,,,,,,,,,,,,,,,,,,,,,,,,,,,,,,,,,,,71.452243000007,71.452243000007,71.452243000007,2,0,0.12308409999241121,None,,,,1,001,A,2022-10-21_18h35.16.481,psychopy,2022.2.4,60.06738358653476,
1,0,Images/Massage 2.jpg,1,5.7288,0.7429463957737557,0,0,0,0,0,0,0,0,,,,,0,18,18,12,,,,,,,,,72.25061820002156,72.75266910000937,,,,,,,,,,,,,,,,,,,,,,,,,,,,,,,,,,,,,,,,,72.09993380002561,72.09993380002561,72.09993380002561,2,0,0.12308709998615086,None,,,,1,001,A,2022-10-21_18h35.16.481,psychopy,2022.2.4,60.06738358653476,
1,0,Images/Soldiers 7.jpg,1,2.5465,0.9977797084285572,0,0,0,0,0,0,0,0,,,,,0,19,19,2,,,,,,,,,72.9172663000063,73.41706610002439,,,,,,,,,,,,,,,,,,,,,,,,,,,,,,,,,,,,,,,,,72.75266910000937,72.75266910000937,72.75266910000937,2,0,0.13350319999153726,None,,,,1,001,A,2022-10-21_18h35.16.481,psychopy,2022.2.4,60.06738358653476,
1,0,,,,,0,0,0,0,0,0,0,0,,,,,,,,,,,,,,,,,,,,,,,,,,,,,,,,,,,,,,,,,,,,,,,,,,,,,,,,,,,,,,,,,,,,,1,001,A,2022-10-21_18h35.16.481,psychopy,2022.2.4,60.06738358653476,
,,,,,,,,,,,,,,,,,,,,,,,,,,,,,,,,,,,,,,,,,,,,,,,,,,,,,,,,,,,,,,,,,,,,,,,,,,,,,,,,73.41706610002439,73.41706610002439,,,,,,,,
