nRepsTask1,nRepsTask2,ImageFile,AnimateInanimate,ValenceScore,Rand,controlTaskOrder.thisRepN,controlTaskOrder.thisTrialN,controlTaskOrder.thisN,controlTaskOrder.thisIndex,part1.thisRepN,part1.thisTrialN,part1.thisN,part1.thisIndex,part2.thisRepN,part2.thisTrialN,part2.thisN,part2.thisIndex,trialsStudyImages2.thisRepN,trialsStudyImages2.thisTrialN,trialsStudyImages2.thisN,trialsStudyImages2.thisIndex,trialsTestImages2_1.thisRepN,trialsTestImages2_1.thisTrialN,trialsTestImages2_1.thisN,trialsTestImages2_1.thisIndex,trialsTestImages2_2.thisRepN,trialsTestImages2_2.thisTrialN,trialsTestImages2_2.thisN,trialsTestImages2_2.thisIndex,trialsTestImages2_3.thisRepN,trialsTestImages2_3.thisTrialN,trialsTestImages2_3.thisN,trialsTestImages2_3.thisIndex,key_resp.keys,key_resp.rt,key_resp.started,key_resp.stopped,WelcomeText.started,WelcomeText.stopped,text_2.started,text_2.stopped,key_resp_2.keys,key_resp_2.rt,key_resp_2.started,key_resp_2.stopped,ConsentText.started,ConsentText.stopped,key_resp_3.keys,key_resp_3.rt,key_resp_3.started,key_resp_3.stopped,InstructionText.started,InstructionText.stopped,key_resp_8.keys,key_resp_8.rt,key_resp_8.started,key_resp_8.stopped,text_7.started,text_7.stopped,text_8.started,text_8.stopped,key_resp_13.keys,key_resp_13.rt,key_resp_13.started,key_resp_13.stopped,key_resp_14.keys,key_resp_14.rt,key_resp_14.started,key_resp_14.stopped,image_7.started,image_7.stopped,text_9.started,text_9.stopped,key_resp_15.keys,key_resp_15.rt,key_resp_15.started,key_resp_15.stopped,key_resp_16.keys,key_resp_16.corr,key_resp_16.rt,key_resp_16.started,key_resp_16.stopped,image_6.started,image_6.stopped,text_5.started,text_5.stopped,key_resp_5.keys,key_resp_5.rt,key_resp_5.started,key_resp_5.stopped,key_resp_17.keys,key_resp_17.corr,key_resp_17.rt,key_resp_17.started,key_resp_17.stopped,image_8.started,image_8.stopped,key_resp_18.keys,key_resp_18.corr,key_resp_18.rt,key_resp_18.started,key_resp_18.stopped,image_9.started,image_9.stopped,participant,session,group,date,expName,psychopyVersion,frameRate,
,,,,,,,,,,,,,,,,,,,,,,,,,,,,,,,,,,space,0.467687499942258,9.50865741702728,None,,,,,,,,,,,,,,,,,,,,,,,,,,,,,,,,,,,,,,,,,,,,,,,,,,,,,,,,,,,,,,,,,,,,1,001,A,2022_Jun_08_2302,psychopy,2021.2.3,None,
,,,,,,,,,,,,,,,,,,,,,,,,,,,,,,,,,,,,,,9.50865741702728,None,9.990672833053395,None,space,0.4464487910736352,10.479986125021242,None,,,,,,,,,,,,,,,,,,,,,,,,,,,,,,,,,,,,,,,,,,,,,,,,,,,,,,,,,,,,1,001,A,2022_Jun_08_2302,psychopy,2021.2.3,None,
,,,,,,,,,,,,,,,,,,,,,,,,,,,,,,,,,,,,,,,,10.95030637504533,None,,,,,10.479986125021242,None,space,0.3213359579676762,11.449214958003722,None,,,,,,,,,,,,,,,,,,,,,,,,,,,,,,,,,,,,,,,,,,,,,,,,,,,,,,1,001,A,2022_Jun_08_2302,psychopy,2021.2.3,None,
,,,,,,,,,,,,,,,,,,,,,,,,,,,,,,,,,,,,,,,,11.788113542017527,None,,,,,,,,,,,11.449214958003722,None,space,0.26715825009159744,12.279283625073731,None,,,,,,,,,,,,,,,,,,,,,,,,,,,,,,,,,,,,,,,,,,,,,,,,1,001,A,2022_Jun_08_2302,psychopy,2021.2.3,None,
0,1,Images/Tiger 2.jpg,2,,,0,0,0,1,,,,,0,0,0,0,0,0,0,1,,,,,,,,,,,,,,,,,,,14.967159250052646,None,,,,,,,,,,,,,,,,,12.279283625073731,None,13.060558583005331,None,space,0.35043554205913097,13.060558583005331,None,1,1.4899639169452712,13.45365479204338,None,13.45365479204338,None,,,,,,,,,,,,,,,,,,,,,,,,,,,,,,,,,,1,001,A,2022_Jun_08_2302,psychopy,2021.2.3,None,
0,1,Images/Pigeon 4.jpg,2,,,0,0,0,1,,,,,0,0,0,0,0,1,1,4,,,,,,,,,,,,,,,,,,,15.842158333049156,None,,,,,,,,,,,,,,,,,,,,,,,,,1,0.36193958402145654,15.467044832999818,None,15.467044832999818,None,,,,,,,,,,,,,,,,,,,,,,,,,,,,,,,,,,1,001,A,2022_Jun_08_2302,psychopy,2021.2.3,None,
0,1,Images/Shark 7.jpg,2,,,0,0,0,1,,,,,0,0,0,0,0,2,2,2,,,,,,,,,,,,,,,,,,,17.18303104210645,None,,,,,,,,,,,,,,,,,,,,,,,,,1,0.8311120419530198,16.34518820804078,None,16.34518820804078,None,,,,,,,,,,,,,,,,,,,,,,,,,,,,,,,,,,1,001,A,2022_Jun_08_2302,psychopy,2021.2.3,None,
0,1,Images/Storage 3.jpg,1,,,0,0,0,1,,,,,0,0,0,0,0,3,3,7,,,,,,,,,,,,,,,,,,,17.92280366702471,None,,,,,,,,,,,,,,,,,,,,,,,,,1,0.22816241707187146,17.682411000016145,None,17.682411000016145,None,,,,,,,,,,,,,,,,,,,,,,,,,,,,,,,,,,1,001,A,2022_Jun_08_2302,psychopy,2021.2.3,None,
0,1,Images/Rocks 3.jpg,1,,,0,0,0,1,,,,,0,0,0,0,0,4,4,9,,,,,,,,,,,,,,,,,,,18.66078150004614,None,,,,,,,,,,,,,,,,,,,,,,,,,1,0.22430220793467015,18.428443833021447,None,18.428443833021447,None,,,,,,,,,,,,,,,,,,,,,,,,,,,,,,,,,,1,001,A,2022_Jun_08_2302,psychopy,2021.2.3,None,
0,1,Images/Wedding 7.jpg,1,,,0,0,0,1,,,,,0,0,0,0,0,5,5,6,,,,,,,,,,,,,,,,,,,19.37349345802795,None,,,,,,,,,,,,,,,,,,,,,,,,,1,0.20264266605954617,19.157546000089496,None,19.157546000089496,None,,,,,,,,,,,,,,,,,,,,,,,,,,,,,,,,,,1,001,A,2022_Jun_08_2302,psychopy,2021.2.3,None,
0,1,Images/Surprise 2.jpg,2,,,0,0,0,1,,,,,0,0,0,0,0,6,6,0,,,,,,,,,,,,,,,,,,,20.115381083101965,None,,,,,,,,,,,,,,,,,,,,,,,,,1,0.22124312492087483,19.87682033306919,None,19.87682033306919,None,,,,,,,,,,,,,,,,,,,,,,,,,,,,,,,,,,1,001,A,2022_Jun_08_2302,psychopy,2021.2.3,None,
0,1,Images/Yarn 4.jpg,1,,,0,0,0,1,,,,,0,0,0,0,0,7,7,5,,,,,,,,,,,,,,,,,,,20.863516708021052,None,,,,,,,,,,,,,,,,,,,,,,,,,1,0.23275370802730322,20.61846420809161,None,20.61846420809161,None,,,,,,,,,,,,,,,,,,,,,,,,,,,,,,,,,,1,001,A,2022_Jun_08_2302,psychopy,2021.2.3,None,
0,1,Images/Socks 1.jpg,1,,,0,0,0,1,,,,,0,0,0,0,0,8,8,8,,,,,,,,,,,,,,,,,,,21.57603191700764,None,,,,,,,,,,,,,,,,,,,,,,,,,1,0.2059873330872506,21.358937167096883,None,21.358937167096883,None,,,,,,,,,,,,,,,,,,,,,,,,,,,,,,,,,,1,001,A,2022_Jun_08_2302,psychopy,2021.2.3,None,
0,1,Images/Sad face 1.jpg,2,,,0,0,0,1,,,,,0,0,0,0,0,9,9,3,,,,,,,,,,,,,,,,,,,22.314155792002566,None,,,,,,,,,,,,,,,,,,,,,,,,,1,0.2177450000308454,22.075509250047617,None,22.075509250047617,None,,,,,,,,,,,,,,,,,,,,,,,,,,,,,,,,,,1,001,A,2022_Jun_08_2302,psychopy,2021.2.3,None,
0,1,Images/Fire 7.jpg,1,1.7007,0.2575505223871397,0,0,0,1,,,,,0,0,0,0,,,,,0,0,0,0,,,,,,,,,,,,,,,27.067825000034645,None,,,,,,,,,,,,,,,,,,,,,,,,,,,,,,,22.807923250016756,None,space,3.6995678750099614,22.807923250016756,None,1,1,0.4829893329879269,26.566381417098455,None,26.566381417098455,None,,,,,,,,,,,,,,,,,,,,,1,001,A,2022_Jun_08_2302,psychopy,2021.2.3,None,
0,1,Images/Frustrated pose 2.jpg,2,2.6481,0.9835247849574866,0,0,0,1,,,,,0,0,0,0,,,,,,,,,0,0,0,9,,,,,,,,,,,28.968088041990995,None,,,,,,,,,,,,,,,,,,,,,,,,,,,,,,,,,,,,,,,,,,,,27.572223625029437,None,space,0.92083433305379,27.572223625029437,None,1,0,0.4158449169481173,28.53357237507589,None,28.53357237507589,None,,,,,,,,1,001,A,2022_Jun_08_2302,psychopy,2021.2.3,None,
0,1,Images/Bridge 1.jpg,1,5.9383,0.7280776864007487,0,0,0,1,,,,,0,0,0,0,,,,,,,,,0,1,1,10,,,,,,,,,,,30.20052425004542,None,,,,,,,,,,,,,,,,,,,,,,,,,,,,,,,,,,,,,,,,,,,,,,,,,,1,1,0.7168734159786254,29.47036216710694,None,29.47036216710694,None,,,,,,,,1,001,A,2022_Jun_08_2302,psychopy,2021.2.3,None,
0,1,Images/Flowers 9.jpg,1,5.9383,0.9019314780175947,0,0,0,1,,,,,0,0,0,0,,,,,,,,,0,2,2,16,,,,,,,,,,,31.384254417032935,None,,,,,,,,,,,,,,,,,,,,,,,,,,,,,,,,,,,,,,,,,,,,,,,,,,1,1,0.6704085420351475,30.702318708063103,None,30.702318708063103,None,,,,,,,,1,001,A,2022_Jun_08_2302,psychopy,2021.2.3,None,
0,1,Images/Galaxy 2.jpg,1,5.7867,0.3193577863328001,0,0,0,1,,,,,0,0,0,0,,,,,,,,,0,3,3,11,,,,,,,,,,,32.690985750057735,None,,,,,,,,,,,,,,,,,,,,,,,,,,,,,,,,,,,,,,,,,,,,,,,,,,1,1,0.7865093339933082,31.887058624997735,None,31.887058624997735,None,,,,,,,,1,001,A,2022_Jun_08_2302,psychopy,2021.2.3,None,
0,1,Images/Car Accident 3.jpg,1,2.7945,0.0434178592037221,0,0,0,1,,,,,0,0,0,0,,,,,,,,,0,4,4,18,,,,,,,,,,,33.92717487504706,None,,,,,,,,,,,,,,,,,,,,,,,,,,,,,,,,,,,,,,,,,,,,,,,,,,1,1,0.7233390840701759,33.19163783302065,None,33.19163783302065,None,,,,,,,,1,001,A,2022_Jun_08_2302,psychopy,2021.2.3,None,
0,1,Images/Fireworks 3.jpg,1,6.0651,0.6482747677270315,0,0,0,1,,,,,0,0,0,0,,,,,,,,,0,5,5,7,,,,,,,,,,,34.909545625094324,None,,,,,,,,,,,,,,,,,,,,,,,,,,,,,,,,,,,,,,,,,,,,,,,,,,1,1,0.4653879589168355,34.433422292000614,None,34.433422292000614,None,,,,,,,,1,001,A,2022_Jun_08_2302,psychopy,2021.2.3,None,
0,1,Images/Elephant 1.jpg,2,5.8272,0.727686106610318,0,0,0,1,,,,,0,0,0,0,,,,,,,,,0,6,6,0,,,,,,,,,,,35.76258112501819,None,,,,,,,,,,,,,,,,,,,,,,,,,,,,,,,,,,,,,,,,,,,,,,,,,,1,0,0.33884099998977035,35.40957725001499,None,35.40957725001499,None,,,,,,,,1,001,A,2022_Jun_08_2302,psychopy,2021.2.3,None,
0,1,Images/Gun 4.jpg,1,2.9016,0.4797988948390023,0,0,0,1,,,,,0,0,0,0,,,,,,,,,0,7,7,15,,,,,,,,,,,36.5518647080753,None,,,,,,,,,,,,,,,,,,,,,,,,,,,,,,,,,,,,,,,,,,,,,,,,,,1,1,0.2769648750545457,36.25974212505389,None,36.25974212505389,None,,,,,,,,1,001,A,2022_Jun_08_2302,psychopy,2021.2.3,None,
0,1,Images/Flowers 1.jpg,1,5.8142,0.5523292819921903,0,0,0,1,,,,,0,0,0,0,,,,,,,,,0,8,8,3,,,,,,,,,,,37.3778145830147,None,,,,,,,,,,,,,,,,,,,,,,,,,,,,,,,,,,,,,,,,,,,,,,,,,,1,1,0.3124265420483425,37.05322729202453,None,37.05322729202453,None,,,,,,,,1,001,A,2022_Jun_08_2302,psychopy,2021.2.3,None,
0,1,Images/Couple 8.jpg,2,5.7678,0.2950874497117757,0,0,0,1,,,,,0,0,0,0,,,,,,,,,0,9,9,8,,,,,,,,,,,38.14709575008601,None,,,,,,,,,,,,,,,,,,,,,,,,,,,,,,,,,,,,,,,,,,,,,,,,,,1,0,0.25654733390547335,37.87697062501684,None,37.87697062501684,None,,,,,,,,1,001,A,2022_Jun_08_2302,psychopy,2021.2.3,None,
0,1,Images/Garbage dump 3.jpg,1,2.0219,0.350393201470347,0,0,0,1,,,,,0,0,0,0,,,,,,,,,0,10,10,12,,,,,,,,,,,38.84915970801376,None,,,,,,,,,,,,,,,,,,,,,,,,,,,,,,,,,,,,,,,,,,,,,,,,,,1,1,0.18840145808644593,38.647041207994334,None,38.647041207994334,None,,,,,,,,1,001,A,2022_Jun_08_2302,psychopy,2021.2.3,None,
0,1,Images/Lake 2.jpg,1,6.3635,0.6280847881706122,0,0,0,1,,,,,0,0,0,0,,,,,,,,,0,11,11,6,,,,,,,,,,,39.60454829200171,None,,,,,,,,,,,,,,,,,,,,,,,,,,,,,,,,,,,,,,,,,,,,,,,,,,1,1,0.24127537501044571,39.34829904208891,None,39.34829904208891,None,,,,,,,,1,001,A,2022_Jun_08_2302,psychopy,2021.2.3,None,
0,1,Images/Lake 12.jpg,1,6.4088,0.434259541522947,0,0,0,1,,,,,0,0,0,0,,,,,,,,,0,12,12,17,,,,,,,,,,,40.387423792039044,None,,,,,,,,,,,,,,,,,,,,,,,,,,,,,,,,,,,,,,,,,,,,,,,,,,1,1,0.26921900000888854,40.10354975005612,None,40.10354975005612,None,,,,,,,,1,001,A,2022_Jun_08_2302,psychopy,2021.2.3,None,
0,1,Images/Hangover 1.jpg,2,2.3921,0.5202939654083889,0,0,0,1,,,,,0,0,0,0,,,,,,,,,0,13,13,5,,,,,,,,,,,41.12216679204721,None,,,,,,,,,,,,,,,,,,,,,,,,,,,,,,,,,,,,,,,,,,,,,,,,,,1,0,0.20966508297715336,40.88956795807462,None,40.88956795807462,None,,,,,,,,1,001,A,2022_Jun_08_2302,psychopy,2021.2.3,None,
0,1,Images/Dead bodies 2.jpg,2,1.2275,0.1919382765632477,0,0,0,1,,,,,0,0,0,0,,,,,,,,,0,14,14,13,,,,,,,,,,,41.86859816708602,None,,,,,,,,,,,,,,,,,,,,,,,,,,,,,,,,,,,,,,,,,,,,,,,,,,1,0,0.2157556670717895,41.63805066701025,None,41.63805066701025,None,,,,,,,,1,001,A,2022_Jun_08_2302,psychopy,2021.2.3,None,
0,1,Images/Dog 2.jpg,2,5.9348,0.8224751356721797,0,0,0,1,,,,,0,0,0,0,,,,,,,,,0,15,15,14,,,,,,,,,,,42.646332500036806,None,,,,,,,,,,,,,,,,,,,,,,,,,,,,,,,,,,,,,,,,,,,,,,,,,,1,0,0.2600167079363018,42.37368329206947,None,42.37368329206947,None,,,,,,,,1,001,A,2022_Jun_08_2302,psychopy,2021.2.3,None,
0,1,Images/Gun 6.jpg,1,2.9016,0.5624552116796375,0,0,0,1,,,,,0,0,0,0,,,,,,,,,0,16,16,2,,,,,,,,,,,43.33740637509618,None,,,,,,,,,,,,,,,,,,,,,,,,,,,,,,,,,,,,,,,,,,,,,,,,,,1,1,0.18021879205480218,43.14600908302236,None,43.14600908302236,None,,,,,,,,1,001,A,2022_Jun_08_2302,psychopy,2021.2.3,None,
0,1,Images/Lake 10.jpg,1,6.125,0.5595361608030758,0,0,0,1,,,,,0,0,0,0,,,,,,,,,0,17,17,4,,,,,,,,,,,44.10975916706957,None,,,,,,,,,,,,,,,,,,,,,,,,,,,,,,,,,,,,,,,,,,,,,,,,,,1,1,0.26073704205919057,43.83912695804611,None,43.83912695804611,None,,,,,,,,1,001,A,2022_Jun_08_2302,psychopy,2021.2.3,None,
0,1,Images/Flowers 6.jpg,1,5.9556,0.947680247901311,0,0,0,1,,,,,0,0,0,0,,,,,,,,,0,18,18,1,,,,,,,,,,,44.868433792027645,None,,,,,,,,,,,,,,,,,,,,,,,,,,,,,,,,,,,,,,,,,,,,,,,,,,1,1,0.2361037920927629,44.61178512510378,None,44.61178512510378,None,,,,,,,,1,001,A,2022_Jun_08_2302,psychopy,2021.2.3,None,
0,1,Images/Miserable pose 5.jpg,2,2.9754,0.8891439707630439,0,0,0,1,,,,,0,0,0,0,,,,,,,,,0,19,19,19,,,,,,,,,,,45.85195775004104,None,,,,,,,,,,,,,,,,,,,,,,,,,,,,,,,,,,,,,,,,,,,,,,,,,,1,0,0.4678310420131311,45.37193829205353,None,45.37193829205353,None,,,,,,,,1,001,A,2022_Jun_08_2302,psychopy,2021.2.3,None,
0,1,Images/Fireworks 2.jpg,1,6.277,0.6055150196406405,0,0,0,1,,,,,0,0,0,0,,,,,,,,,,,,,0,0,0,1,,,,,,,47.86526491702534,None,,,,,,,,,,,,,,,,,,,,,,,,,,,,,,,,,,,,,,,,,,,,46.34547329205088,None,space,1.0687308750348166,46.34547329205088,None,,,,,,,,1,1,0.40260287502314895,47.45020870806184,None,47.45020870806184,None,1,001,A,2022_Jun_08_2302,psychopy,2021.2.3,None,
0,1,Images/Beach 2.jpg,1,6.2944,0.9995304220425305,0,0,0,1,,,,,0,0,0,0,,,,,,,,,,,,,0,1,1,19,,,,,,,48.627099375007674,None,,,,,,,,,,,,,,,,,,,,,,,,,,,,,,,,,,,,,,,,,,,,,,,,,,,,,,,,,1,1,0.2417853749357164,48.36477016704157,None,48.36477016704157,None,1,001,A,2022_Jun_08_2302,psychopy,2021.2.3,None,
0,1,Images/Angry face 3.jpg,2,2.5188,0.9422085734809273,0,0,0,1,,,,,0,0,0,0,,,,,,,,,,,,,0,2,2,7,,,,,,,49.31615612504538,None,,,,,,,,,,,,,,,,,,,,,,,,,,,,,,,,,,,,,,,,,,,,,,,,,,,,,,,,,1,0,0.164335084031336,49.132148625096306,None,49.132148625096306,None,1,001,A,2022_Jun_08_2302,psychopy,2021.2.3,None,
0,1,Images/Wedding 6.jpg,2,6.0481,0.12578285099061193,0,0,0,1,,,,,0,0,0,0,,,,,,,,,,,,,0,3,3,11,,,,,,,50.10021358309314,None,,,,,,,,,,,,,,,,,,,,,,,,,,,,,,,,,,,,,,,,,,,,,,,,,,,,,,,,,1,0,0.27539233409333974,49.81225025001913,None,49.81225025001913,None,1,001,A,2022_Jun_08_2302,psychopy,2021.2.3,None,
