ImageFile,AnimateInanimate,ValenceScore,Rand,trialsStudyImages.thisRepN,trialsStudyImages.thisTrialN,trialsStudyImages.thisN,trialsStudyImages.thisIndex,trialsTest1_1.thisRepN,trialsTest1_1.thisTrialN,trialsTest1_1.thisN,trialsTest1_1.thisIndex,key_resp.keys,key_resp.rt,key_resp.started,key_resp.stopped,WelcomeText.started,WelcomeText.stopped,text_2.started,text_2.stopped,key_resp_2.keys,key_resp_2.rt,key_resp_2.started,key_resp_2.stopped,ConsentText.started,ConsentText.stopped,key_resp_3.keys,key_resp_3.rt,key_resp_3.started,key_resp_3.stopped,InstructionText.started,InstructionText.stopped,key_resp_8.keys,key_resp_8.rt,key_resp_8.started,key_resp_8.stopped,text_7.started,text_7.stopped,text_4.started,text_4.stopped,key_resp_4.keys,key_resp_4.rt,key_resp_4.started,key_resp_4.stopped,image.started,image.stopped,key_resp_7.keys,key_resp_7.corr,key_resp_7.rt,key_resp_7.started,key_resp_7.stopped,text_6.started,text_6.stopped,key_resp_6.keys,key_resp_6.rt,key_resp_6.started,key_resp_6.stopped,image_2.started,image_2.stopped,key_resp_9.keys,key_resp_9.corr,key_resp_9.rt,key_resp_9.started,key_resp_9.stopped,participant,session,date,expName,psychopyVersion,frameRate,
,,,,,,,,,,,,space,0.45607729197945446,6.512692250078544,None,,,,,,,,,,,,,,,,,,,,,,,,,,,,,,,,,,,,,,,,,,,,,,,,,,001,2022_Jun_03_1446,psychopy,2021.2.3,None,
,,,,,,,,,,,,,,,,6.512692250078544,None,6.988955250009894,None,space,0.22570654202718288,7.4881905419752,None,,,,,,,,,,,,,,,,,,,,,,,,,,,,,,,,,,,,,,,,,,001,2022_Jun_03_1446,psychopy,2021.2.3,None,
,,,,,,,,,,,,,,,,,,7.737239666981623,None,,,,,7.4881905419752,None,space,0.2193050830392167,8.234597709029913,None,,,,,,,,,,,,,,,,,,,,,,,,,,,,,,,,,,,,001,2022_Jun_03_1446,psychopy,2021.2.3,None,
,,,,,,,,,,,,,,,,,,,,,,,,,,,,,,8.234597709029913,None,space,0.4608241249807179,8.46976595907472,None,,,,,,,,,,,,,,,,,,,,,,,,,,,,,,001,2022_Jun_03_1446,psychopy,2021.2.3,None,
,,,,,,,,,,,,,,,,,,8.940580792026594,None,,,,,,,,,,,,,,,,,8.46976595907472,None,9.432002417044714,None,space,0.30678245797753334,9.432002417044714,None,,,,,,,,,,,,,,,,,,,,,,001,2022_Jun_03_1446,psychopy,2021.2.3,None,
Images/Goat 1.jpg,1,,,0,0,0,0,,,,,,,,,,,10.885879417066462,None,,,,,,,,,,,,,,,,,,,,,,,,,9.778020625002682,None,1,1,1.0892315419623628,9.778020625002682,None,,,,,,,,,,,,,,,001,2022_Jun_03_1446,psychopy,2021.2.3,None,
,,,,,,,,,,,,,,,,,,,,,,,,,,,,,,,,,,,,,,,,,,,,,,,,,,,11.377563250018284,None,space,0.8643967909738421,11.377563250018284,None,,,,,,,,,001,2022_Jun_03_1446,psychopy,2021.2.3,None,
Images/Toilet 4.jpg,2,2.4986,0.898260773201397,,,,,0,0,0,7,,,,,,,14.554511666996405,None,,,,,,,,,,,,,,,,,,,,,,,,,,,,,,,,,,,,,,12.300339584005997,None,1,0,2.236801459104754,12.300339584005997,None,,001,2022_Jun_03_1446,psychopy,2021.2.3,None,
Images/Birthday 3.jpg,2,5.5506,0.46285993459803654,,,,,0,1,1,1,,,,,,,15.34511920902878,None,,,,,,,,,,,,,,,,,,,,,,,,,,,,,,,,,,,,,,15.062785500078462,None,2,1,0.2583396249683574,15.062785500078462,None,,001,2022_Jun_03_1446,psychopy,2021.2.3,None,
Images/Police 5.jpg,1,2.4345,0.07517344267112913,,,,,0,2,2,3,,,,,,,16.054694000049494,None,,,,,,,,,,,,,,,,,,,,,,,,,,,,,,,,,,,,,,15.84758858405985,None,1,1,0.18230483308434486,15.84758858405985,None,,001,2022_Jun_03_1446,psychopy,2021.2.3,None,
Images/Neonazi 1.jpg,1,2.0577,0.8848283844025013,,,,,0,3,3,6,,,,,,,16.734483708976768,None,,,,,,,,,,,,,,,,,,,,,,,,,,,,,,,,,,,,,,16.56503325002268,None,2,0,0.15286795899737626,16.56503325002268,None,,001,2022_Jun_03_1446,psychopy,2021.2.3,None,
Images/Fire 7.jpg,2,1.7007,0.6719101083569338,,,,,0,4,4,0,,,,,,,17.35187095904257,None,,,,,,,,,,,,,,,,,,,,,,,,,,,,,,,,,,,,,,17.233603792032227,None,1,0,0.09923920792061836,17.233603792032227,None,,001,2022_Jun_03_1446,psychopy,2021.2.3,None,
Images/Baby 6.jpg,1,6.0604,0.39030199076009964,,,,,0,5,5,5,,,,,,,17.93809912505094,None,,,,,,,,,,,,,,,,,,,,,,,,,,,,,,,,,,,,,,17.851187749998644,None,2,0,0.07955345802474767,17.851187749998644,None,,001,2022_Jun_03_1446,psychopy,2021.2.3,None,
Images/Explosion 1.jpg,2,2.7061,0.44591947684325695,,,,,0,6,6,17,,,,,,,18.556560249999166,None,,,,,,,,,,,,,,,,,,,,,,,,,,,,,,,,,,,,,,18.437572750030085,None,1,0,0.10205979191232473,18.437572750030085,None,,001,2022_Jun_03_1446,psychopy,2021.2.3,None,
Images/Horse 1.jpg,1,5.9469,0.7736589633910252,,,,,0,7,7,15,,,,,,,19.135207000072114,None,,,,,,,,,,,,,,,,,,,,,,,,,,,,,,,,,,,,,,19.065391084062867,None,2,0,0.054998290957883,19.065391084062867,None,,001,2022_Jun_03_1446,psychopy,2021.2.3,None,
Images/Jail 2.jpg,2,1.9691,0.03865937602444702,,,,,0,8,8,4,,,,,,,19.74446237506345,None,,,,,,,,,,,,,,,,,,,,,,,,,,,,,,,,,,,,,,19.63811862503644,None,1,0,0.09365858300589025,19.63811862503644,None,,001,2022_Jun_03_1446,psychopy,2021.2.3,None,
Images/Sad pose 1.jpg,1,2.8801,0.568733967121452,,,,,0,9,9,11,,,,,,,20.45670137507841,None,,,,,,,,,,,,,,,,,,,,,,,,,,,,,,,,,,,,,,20.246883500018157,None,1,1,0.19400195800699294,20.246883500018157,None,,001,2022_Jun_03_1446,psychopy,2021.2.3,None,
Images/Soldiers 7.jpg,1,2.5465,0.9977797084285572,,,,,0,10,10,2,,,,,,,21.30722662503831,None,,,,,,,,,,,,,,,,,,,,,,,,,,,,,,,,,,,,,,20.959574999986216,None,1,1,0.33220391697250307,20.959574999986216,None,,001,2022_Jun_03_1446,psychopy,2021.2.3,None,
Images/Intensity 1.jpg,1,2.8252,0.36804645311705486,,,,,0,11,11,16,,,,,,,22.014845874975435,None,,,,,,,,,,,,,,,,,,,,,,,,,,,,,,,,,,,,,,21.809728792053647,None,1,1,0.19028204097412527,21.809728792053647,None,,001,2022_Jun_03_1446,psychopy,2021.2.3,None,
Images/Mother 5.jpg,1,5.9438,0.5672645993361737,,,,,0,12,12,14,,,,,,,22.75884170900099,None,,,,,,,,,,,,,,,,,,,,,,,,,,,,,,,,,,,,,,22.516943000024185,None,1,1,0.22931550000794232,22.516943000024185,None,,001,2022_Jun_03_1446,psychopy,2021.2.3,None,
Images/Miserable pose 1.jpg,1,2.579,0.9842937974063046,,,,,0,13,13,13,,,,,,,23.469712833990343,None,,,,,,,,,,,,,,,,,,,,,,,,,,,,,,,,,,,,,,23.267043709056452,None,1,1,0.19476866710465401,23.267043709056452,None,,001,2022_Jun_03_1446,psychopy,2021.2.3,None,
Images/Yarn 1.jpg,2,2.5645,0.6029614127731355,,,,,0,14,14,8,,,,,,,24.136141250026412,None,,,,,,,,,,,,,,,,,,,,,,,,,,,,,,,,,,,,,,23.97073091706261,None,1,0,0.1549135830719024,23.97073091706261,None,,001,2022_Jun_03_1446,psychopy,2021.2.3,None,
Images/Massage 2.jpg,1,5.7288,0.7429463957737557,,,,,0,15,15,12,,,,,,,24.819607167039067,None,,,,,,,,,,,,,,,,,,,,,,,,,,,,,,,,,,,,,,24.63690237503033,None,1,1,0.15820587507914752,24.63690237503033,None,,001,2022_Jun_03_1446,psychopy,2021.2.3,None,
Images/Picnic 1.jpg,1,6.0998,0.10131694427212556,,,,,0,16,16,10,,,,,,,25.46557679201942,None,,,,,,,,,,,,,,,,,,,,,,,,,,,,,,,,,,,,,,25.331598000018857,None,1,1,0.11650174995884299,25.331598000018857,None,,001,2022_Jun_03_1446,psychopy,2021.2.3,None,
Images/Sidewalk 6.jpg,2,2.7978,0.6052913211298454,,,,,0,17,17,19,,,,,,,26.113242625026032,None,,,,,,,,,,,,,,,,,,,,,,,,,,,,,,,,,,,,,,25.97537524998188,None,1,0,0.11811962502542883,25.97537524998188,None,,001,2022_Jun_03_1446,psychopy,2021.2.3,None,
Images/Bird 3.jpg,1,6.0495,0.1352931607121708,,,,,0,18,18,9,,,,,,,26.675187917076983,None,,,,,,,,,,,,,,,,,,,,,,,,,,,,,,,,,,,,,,26.613327667000704,None,1,1,0.04325854196213186,26.613327667000704,None,,001,2022_Jun_03_1446,psychopy,2021.2.3,None,
Images/Explosion 4.jpg,2,2.4912,0.7212808895846713,,,,,0,19,19,18,,,,,,,27.36206595902331,None,,,,,,,,,,,,,,,,,,,,,,,,,,,,,,,,,,,,,,27.180953499977477,None,1,0,0.1670398749411106,27.180953499977477,None,,001,2022_Jun_03_1446,psychopy,2021.2.3,None,
