nRepsTask1,nRepsTask2,ImageFile,AnimateInanimate,ValenceScore,Rand,controlTaskOrder.thisRepN,controlTaskOrder.thisTrialN,controlTaskOrder.thisN,controlTaskOrder.thisIndex,part1.thisRepN,part1.thisTrialN,part1.thisN,part1.thisIndex,trialsStudyImages.thisRepN,trialsStudyImages.thisTrialN,trialsStudyImages.thisN,trialsStudyImages.thisIndex,trialsOriginal.thisRepN,trialsOriginal.thisTrialN,trialsOriginal.thisN,trialsOriginal.thisIndex,key_resp.started,WelcomeText.started,key_resp.keys,key_resp.rt,text_2.started,text_2.stopped,key_resp_2.started,ConsentText.started,key_resp_2.keys,key_resp_2.rt,key_resp_3.started,InstructionText.started,key_resp_3.keys,key_resp_3.rt,key_resp_8.started,text_7.started,key_resp_8.keys,key_resp_8.rt,text_4.started,key_resp_4.started,key_resp_4.keys,key_resp_4.rt,image.started,key_resp_7.started,key_resp_7.keys,key_resp_7.corr,joystick.x,joystick.y,joystick.button_0,joystick.button_1,joystick.button_2,joystick.button_3,joystick.button_4,joystick.button_5,joystick.button_6,joystick.button_7,joystick.button_8,joystick.button_9,joystick.button_10,joystick.time,key_resp_7.rt,text_6.started,key_resp_6.started,key_resp_6.keys,key_resp_6.rt,image_2.started,key_resp_9.started,button_resp.started,key_resp_9.keys,key_resp_9.corr,key_resp_9.rt,button_resp.keys,joystick_4.x,joystick_4.y,joystick_4.button_0,joystick_4.button_1,joystick_4.button_2,joystick_4.button_3,joystick_4.button_4,joystick_4.button_5,joystick_4.button_6,joystick_4.button_7,joystick_4.button_8,joystick_4.button_9,joystick_4.button_10,joystick_4.time,joystick.x_o,joystick.y_o,joystick.t_o,image_2.stopped,key_resp_9.stopped,button_resp.stopped,participant,session,group,date,expName,psychopyVersion,frameRate,
,,,,,,,,,,,,,,,,,,,,,,8.911434300011024,8.911434300011024,space,2.2227845000161324,,,,,,,,,,,,,,,,,,,,,,,,,,,,,,,,,,,,,,,,,,,,,,,,,,,,,,,,,,,,,,,,,,,,,,001,A,2022-10-21_19h59.02.047,psychopy,2022.2.4,59.95405120727696,
,,,,,,,,,,,,,,,,,,,,,,,,,,11.153962200012757,11.654073600017,11.654073600017,11.654073600017,space,0.43195050000213087,,,,,,,,,,,,,,,,,,,,,,,,,,,,,,,,,,,,,,,,,,,,,,,,,,,,,,,,,,,,,,,,001,A,2022-10-21_19h59.02.047,psychopy,2022.2.4,59.95405120727696,
,,,,,,,,,,,,,,,,,,,,,,,,,,12.103953800018644,12.603950600023381,,,,,12.603950600023381,12.603950600023381,space,0.26563399998121895,,,,,,,,,,,,,,,,,,,,,,,,,,,,,,,,,,,,,,,,,,,,,,,,,,,,,,,,,,,,001,A,2022-10-21_19h59.02.047,psychopy,2022.2.4,59.95405120727696,
,,,,,,,,,,,,,,,,,,,,,,,,,,12.887358900014078,13.387341599998763,,,,,,,,,13.387341599998763,13.387341599998763,space,0.22548699998878874,,,,,,,,,,,,,,,,,,,,,,,,,,,,,,,,,,,,,,,,,,,,,,,,,,,,,,,,001,A,2022-10-21_19h59.02.047,psychopy,2022.2.4,59.95405120727696,
1,0,Images/Monkey 1.jpg,1,,,0,0,0,0,0,0,0,0,0,0,0,3,,,,,,,,,15.370241600001464,14.144942900020396,,,,,,,,,,,,,14.144942900020396,14.144942900020396,space,0.180113500013249,14.385681900021154,14.385681900021154,None,0,0.0,0.0,0,0,0,0,0,0,0,0,0,0,0,6.5823870000022,,,,,,,,,,,,,,,,,,,,,,,,,,,,,,,,,,001,A,2022-10-21_19h59.02.047,psychopy,2022.2.4,59.95405120727696,
1,0,Images/Sidewalk 3.jpg,2,,,0,0,0,0,0,0,0,0,0,1,1,8,,,,,,,,,15.970708400011063,16.47093790001236,,,,,,,,,,,,,,,,,15.870245900005102,15.870245900005102,1,0,0.0,0.0,0,0,0,0,0,0,0,0,0,0,0,7.184446400002344,0.07964550002361648,,,,,,,,,,,,,,,,,,,,,,,,,,,,,,,,,001,A,2022-10-21_19h59.02.047,psychopy,2022.2.4,59.95405120727696,
1,0,Images/Gun 5.jpg,2,,,0,0,0,0,0,0,0,0,0,2,2,5,,,,,,,,,16.50400400001672,17.00452210000367,,,,,,,,,,,,,,,,,16.47093790001236,16.47093790001236,1,0,0.0,0.0,0,0,0,0,0,0,0,0,0,0,0,7.717887100006919,0.006531899998662993,,,,,,,,,,,,,,,,,,,,,,,,,,,,,,,,,001,A,2022-10-21_19h59.02.047,psychopy,2022.2.4,59.95405120727696,
1,0,Images/Happy face 2.jpg,1,,,0,0,0,0,0,0,0,0,0,3,3,1,,,,,,,,,17.17068140002084,17.671096100006253,,,,,,,,,,,,,,,,,17.00452210000367,17.00452210000367,1,1,0.0,0.0,0,0,0,0,0,0,0,0,0,0,0,8.384395100001711,0.13730830000713468,,,,,,,,,,,,,,,,,,,,,,,,,,,,,,,,,001,A,2022-10-21_19h59.02.047,psychopy,2022.2.4,59.95405120727696,
1,0,Images/Office supplies 4.jpg,2,,,0,0,0,0,0,0,0,0,0,4,4,7,,,,,,,,,17.753896000009263,18.256396800017683,,,,,,,,,,,,,,,,,17.671096100006253,17.671096100006253,1,0,0.0,0.0,0,0,0,0,0,0,0,0,0,0,0,8.96650330000557,0.05416650002007373,,,,,,,,,,,,,,,,,,,,,,,,,,,,,,,,,001,A,2022-10-21_19h59.02.047,psychopy,2022.2.4,59.95405120727696,
1,0,Images/Dog 12.jpg,1,,,0,0,0,0,0,0,0,0,0,5,5,4,,,,,,,,,18.371040600002743,18.872331200022018,,,,,,,,,,,,,,,,,18.256396800017683,18.256396800017683,1,1,0.0,0.0,0,0,0,0,0,0,0,0,0,0,0,9.585531999997329,0.09429639999871142,,,,,,,,,,,,,,,,,,,,,,,,,,,,,,,,,001,A,2022-10-21_19h59.02.047,psychopy,2022.2.4,59.95405120727696,
1,0,Images/Lion 1.jpg,1,,,0,0,0,0,0,0,0,0,0,6,6,2,,,,,,,,,19.020902999996906,19.520535200019367,,,,,,,,,,,,,,,,,18.872331200022018,18.872331200022018,1,1,0.0,0.0,0,0,0,0,0,0,0,0,0,0,0,10.235177499998827,0.12562160001834854,,,,,,,,,,,,,,,,,,,,,,,,,,,,,,,,,001,A,2022-10-21_19h59.02.047,psychopy,2022.2.4,59.95405120727696,
1,0,Images/Money 1.jpg,2,,,0,0,0,0,0,0,0,0,0,7,7,6,,,,,,,,,19.62073640001472,20.120494300004793,,,,,,,,,,,,,,,,,19.520535200019367,19.520535200019367,1,0,0.0,0.0,0,0,0,0,0,0,0,0,0,0,0,10.834381299995584,0.06895269997767173,,,,,,,,,,,,,,,,,,,,,,,,,,,,,,,,,001,A,2022-10-21_19h59.02.047,psychopy,2022.2.4,59.95405120727696,
1,0,Images/Storage 1.jpg,2,,,0,0,0,0,0,0,0,0,0,8,8,9,,,,,,,,,20.186857699998654,20.690573400002904,,,,,,,,,,,,,,,,,20.120494300004793,20.120494300004793,1,0,0.0,0.0,0,0,0,0,0,0,0,0,0,0,0,11.399605699989479,0.044314200000371784,,,,,,,,,,,,,,,,,,,,,,,,,,,,,,,,,001,A,2022-10-21_19h59.02.047,psychopy,2022.2.4,59.95405120727696,
1,0,Images/Goat 1.jpg,1,,,0,0,0,0,0,0,0,0,0,9,9,0,,,,,,,,,20.753658200002974,21.254061200015713,,,,,,,,,,,,,,,,,20.690573400002904,20.690573400002904,1,1,0.0,0.0,0,0,0,0,0,0,0,0,0,0,0,11.966456199996173,0.0440138999838382,,,,,,,,,,,,,,,,,,,,,,,,,,,,,,,,,001,A,2022-10-21_19h59.02.047,psychopy,2022.2.4,59.95405120727696,
1,0,Images/Sidewalk 6.jpg,2,2.7978,0.6901193111063584,0,0,0,0,0,0,0,0,,,,,0,0,0,79,,,,,22.404012600018177,22.90351410000585,,,,,,,,,,,,,,,,,,,,,,,,,,,,,,,,,,,,21.254061200015713,21.254061200015713,space,0.6388678000075743,21.93366340000648,21.93366340000648,21.93366340000648,1,0,0.4400246999866795,None,0.0,0.0,0,0,0,0,0,0,0,0,0,0,0,13.551933400012786,"[0.0, 0.0, 0.0, 0.0, 0.0, 0.0, 0.0, 0.0, 0.0, 0.0, 0.0, 0.0, 0.0, 0.0, 0.0, 0.0, 0.0, 0.0, 0.0, 0.0, 0.0, 0.0, 0.0, 0.0, 0.0, 0.0, 0.0, 0.0, 0.0]","[0.0, 0.0, 0.0, 0.0, 0.0, 0.0, 0.0, 0.0, 0.0, 0.0, 0.0, 0.0, 0.0, 0.0, 0.0, 0.0, 0.0, 0.0, 0.0, 0.0, 0.0, 0.0, 0.0, 0.0, 0.0, 0.0, 0.0, 0.0, 0.0]","[13.155292799987365, 13.16282900000806, 13.18147380001028, 13.1991965000052, 13.216026999987662, 13.233417299983557, 13.25010750000365, 13.266863500000909, 13.283564499986824, 13.300275699992198, 13.31683090000297, 13.333518500003265, 13.35023059998639, 13.366841299983207, 13.382466199982446, 13.399376999994274, 13.416134900006, 13.433248599991202, 13.450062799995067, 13.46669760000077, 13.483400600001914, 13.500111300003482, 13.516744099993957, 13.533426299982239, 13.550041799986502, 13.566751999984263, 13.583371799992165, 13.600079099996947, 13.616867100005038]",,,,,001,A,2022-10-21_19h59.02.047,psychopy,2022.2.4,59.95405120727696,
1,0,Images/Destruction 10.jpg,2,2.0682,0.33267433135769797,0,0,0,0,0,0,0,0,,,,,0,1,1,9,,,,,22.970311900018714,23.4702249999973,,,,,,,,,,,,,,,,,,,,,,,,,,,,,,,,,,,,,,,,22.90351410000585,22.90351410000585,22.90351410000585,1,0,0.03786260000197217,None,0.0,0.0,0,0,0,0,0,0,0,0,0,0,0,14.116839499998605,"[0.0, 0.0, 0.0, 0.0, 0.0, 0.0, 0.0, 0.0, 0.0, 0.0, 0.0, 0.0, 0.0, 0.0, 0.0, 0.0, 0.0, 0.0, 0.0, 0.0, 0.0, 0.0, 0.0, 0.0, 0.0, 0.0, 0.0, 0.0, 0.0, 0.0, 0.0, 0.0, 0.0, 0.0]","[0.0, 0.0, 0.0, 0.0, 0.0, 0.0, 0.0, 0.0, 0.0, 0.0, 0.0, 0.0, 0.0, 0.0, 0.0, 0.0, 0.0, 0.0, 0.0, 0.0, 0.0, 0.0, 0.0, 0.0, 0.0, 0.0, 0.0, 0.0, 0.0, 0.0, 0.0, 0.0, 0.0, 0.0]","[13.155292799987365, 13.16282900000806, 13.18147380001028, 13.1991965000052, 13.216026999987662, 13.233417299983557, 13.25010750000365, 13.266863500000909, 13.283564499986824, 13.300275699992198, 13.31683090000297, 13.333518500003265, 13.35023059998639, 13.366841299983207, 13.382466199982446, 13.399376999994274, 13.416134900006, 13.433248599991202, 13.450062799995067, 13.46669760000077, 13.483400600001914, 13.500111300003482, 13.516744099993957, 13.533426299982239, 13.550041799986502, 13.566751999984263, 13.583371799992165, 13.600079099996947, 13.616867100005038, 14.120377899991581, 14.132732500002021, 14.149323499994352, 14.165953099989565, 14.182771199994022]",,,,,001,A,2022-10-21_19h59.02.047,psychopy,2022.2.4,59.95405120727696,
1,0,Images/Frustrated pose 1.jpg,1,2.3937,0.7929639094339582,0,0,0,0,0,0,0,0,,,,,0,2,2,3,,,,,23.53740190001554,24.04000440001255,,,,,,,,,,,,,,,,,,,,,,,,,,,,,,,,,,,,,,,,23.4702249999973,23.4702249999973,23.4702249999973,1,1,0.03926680001313798,None,0.0,0.0,0,0,0,0,0,0,0,0,0,0,0,14.686473700014176,"[0.0, 0.0, 0.0, 0.0, 0.0, 0.0, 0.0, 0.0, 0.0, 0.0, 0.0, 0.0, 0.0, 0.0, 0.0, 0.0, 0.0, 0.0, 0.0, 0.0, 0.0, 0.0, 0.0, 0.0, 0.0, 0.0, 0.0, 0.0, 0.0, 0.0, 0.0, 0.0, 0.0, 0.0, 0.0, 0.0, 0.0, 0.0, 0.0]","[0.0, 0.0, 0.0, 0.0, 0.0, 0.0, 0.0, 0.0, 0.0, 0.0, 0.0, 0.0, 0.0, 0.0, 0.0, 0.0, 0.0, 0.0, 0.0, 0.0, 0.0, 0.0, 0.0, 0.0, 0.0, 0.0, 0.0, 0.0, 0.0, 0.0, 0.0, 0.0, 0.0, 0.0, 0.0, 0.0, 0.0, 0.0, 0.0]","[13.155292799987365, 13.16282900000806, 13.18147380001028, 13.1991965000052, 13.216026999987662, 13.233417299983557, 13.25010750000365, 13.266863500000909, 13.283564499986824, 13.300275699992198, 13.31683090000297, 13.333518500003265, 13.35023059998639, 13.366841299983207, 13.382466199982446, 13.399376999994274, 13.416134900006, 13.433248599991202, 13.450062799995067, 13.46669760000077, 13.483400600001914, 13.500111300003482, 13.516744099993957, 13.533426299982239, 13.550041799986502, 13.566751999984263, 13.583371799992165, 13.600079099996947, 13.616867100005038, 14.120377899991581, 14.132732500002021, 14.149323499994352, 14.165953099989565, 14.182771199994022, 14.690113199991174, 14.699431899993215, 14.715768699999899, 14.734186499990756, 14.751162200002]",,,,,001,A,2022-10-21_19h59.02.047,psychopy,2022.2.4,59.95405120727696,
1,0,Images/Explosion 4.jpg,2,2.4912,0.7741769511985449,0,0,0,0,0,0,0,0,,,,,0,3,3,78,,,,,24.47081190001336,24.97035859999596,,,,,,,,,,,,,,,,,,,,,,,,,,,,,,,,,,,,,,,,24.04000440001255,24.04000440001255,24.04000440001255,1,0,0.40603209999972023,None,0.0,0.0,0,0,0,0,0,0,0,0,0,0,0,15.618233599991072,"[0.0, 0.0, 0.0, 0.0, 0.0, 0.0, 0.0, 0.0, 0.0, 0.0, 0.0, 0.0, 0.0, 0.0, 0.0, 0.0, 0.0, 0.0, 0.0, 0.0, 0.0, 0.0, 0.0, 0.0, 0.0, 0.0, 0.0, 0.0, 0.0, 0.0, 0.0, 0.0, 0.0, 0.0, 0.0, 0.0, 0.0, 0.0, 0.0, 0.0, 0.0, 0.0, 0.0, 0.0, 0.0, 0.0, 0.0, 0.0, 0.0, 0.0, 0.0, 0.0, 0.0, 0.0, 0.0, 0.0, 0.0, 0.0, 0.0, 0.0, 0.0, 0.0, 0.0, 0.0, 0.0, 0.0]","[0.0, 0.0, 0.0, 0.0, 0.0, 0.0, 0.0, 0.0, 0.0, 0.0, 0.0, 0.0, 0.0, 0.0, 0.0, 0.0, 0.0, 0.0, 0.0, 0.0, 0.0, 0.0, 0.0, 0.0, 0.0, 0.0, 0.0, 0.0, 0.0, 0.0, 0.0, 0.0, 0.0, 0.0, 0.0, 0.0, 0.0, 0.0, 0.0, 0.0, 0.0, 0.0, 0.0, 0.0, 0.0, 0.0, 0.0, 0.0, 0.0, 0.0, 0.0, 0.0, 0.0, 0.0, 0.0, 0.0, 0.0, 0.0, 0.0, 0.0, 0.0, 0.0, 0.0, 0.0, 0.0, 0.0]","[13.155292799987365, 13.16282900000806, 13.18147380001028, 13.1991965000052, 13.216026999987662, 13.233417299983557, 13.25010750000365, 13.266863500000909, 13.283564499986824, 13.300275699992198, 13.31683090000297, 13.333518500003265, 13.35023059998639, 13.366841299983207, 13.382466199982446, 13.399376999994274, 13.416134900006, 13.433248599991202, 13.450062799995067, 13.46669760000077, 13.483400600001914, 13.500111300003482, 13.516744099993957, 13.533426299982239, 13.550041799986502, 13.566751999984263, 13.583371799992165, 13.600079099996947, 13.616867100005038, 14.120377899991581, 14.132732500002021, 14.149323499994352, 14.165953099989565, 14.182771199994022, 14.690113199991174, 14.699431899993215, 14.715768699999899, 14.734186499990756, 14.751162200002, 15.260495099995751, 15.270036500005517, 15.283614399988437, 15.300335200008703, 15.316969899984542, 15.333702400006587, 15.350319999997737, 15.366990799986525, 15.382584200007841, 15.399305700004334, 15.416228699992644, 15.432939099991927, 15.450065499986522, 15.46670190000441, 15.483434800000396, 15.500042700004997, 15.51678350000293, 15.533374299993739, 15.550038999994285, 15.56672420000541, 15.583398399990983, 15.600029900000663, 15.616738699987764, 15.633415299991611, 15.650092399999266, 15.666730600001756, 15.683661599992774]",,,,,001,A,2022-10-21_19h59.02.047,psychopy,2022.2.4,59.95405120727696,
1,0,Images/War 8.jpg,1,1.7473,0.10290094730872323,0,0,0,0,0,0,0,0,,,,,0,4,4,12,,,,,25.137086800008547,25.63845759999822,,,,,,,,,,,,,,,,,,,,,,,,,,,,,,,,,,,,,,,,24.97035859999596,24.97035859999596,24.97035859999596,1,1,0.1386869999987539,None,0.0,0.0,0,0,0,0,0,0,0,0,0,0,0,16.283445200009737,"[0.0, 0.0, 0.0, 0.0, 0.0, 0.0, 0.0, 0.0, 0.0, 0.0, 0.0, 0.0, 0.0, 0.0, 0.0, 0.0, 0.0, 0.0, 0.0, 0.0, 0.0, 0.0, 0.0, 0.0, 0.0, 0.0, 0.0, 0.0, 0.0, 0.0, 0.0, 0.0, 0.0, 0.0, 0.0, 0.0, 0.0, 0.0, 0.0, 0.0, 0.0, 0.0, 0.0, 0.0, 0.0, 0.0, 0.0, 0.0, 0.0, 0.0, 0.0, 0.0, 0.0, 0.0, 0.0, 0.0, 0.0, 0.0, 0.0, 0.0, 0.0, 0.0, 0.0, 0.0, 0.0, 0.0, 0.0, 0.0, 0.0, 0.0, 0.0, 0.0, 0.0, 0.0, 0.0, 0.0, 0.0]","[0.0, 0.0, 0.0, 0.0, 0.0, 0.0, 0.0, 0.0, 0.0, 0.0, 0.0, 0.0, 0.0, 0.0, 0.0, 0.0, 0.0, 0.0, 0.0, 0.0, 0.0, 0.0, 0.0, 0.0, 0.0, 0.0, 0.0, 0.0, 0.0, 0.0, 0.0, 0.0, 0.0, 0.0, 0.0, 0.0, 0.0, 0.0, 0.0, 0.0, 0.0, 0.0, 0.0, 0.0, 0.0, 0.0, 0.0, 0.0, 0.0, 0.0, 0.0, 0.0, 0.0, 0.0, 0.0, 0.0, 0.0, 0.0, 0.0, 0.0, 0.0, 0.0, 0.0, 0.0, 0.0, 0.0, 0.0, 0.0, 0.0, 0.0, 0.0, 0.0, 0.0, 0.0, 0.0, 0.0, 0.0]","[13.155292799987365, 13.16282900000806, 13.18147380001028, 13.1991965000052, 13.216026999987662, 13.233417299983557, 13.25010750000365, 13.266863500000909, 13.283564499986824, 13.300275699992198, 13.31683090000297, 13.333518500003265, 13.35023059998639, 13.366841299983207, 13.382466199982446, 13.399376999994274, 13.416134900006, 13.433248599991202, 13.450062799995067, 13.46669760000077, 13.483400600001914, 13.500111300003482, 13.516744099993957, 13.533426299982239, 13.550041799986502, 13.566751999984263, 13.583371799992165, 13.600079099996947, 13.616867100005038, 14.120377899991581, 14.132732500002021, 14.149323499994352, 14.165953099989565, 14.182771199994022, 14.690113199991174, 14.699431899993215, 14.715768699999899, 14.734186499990756, 14.751162200002, 15.260495099995751, 15.270036500005517, 15.283614399988437, 15.300335200008703, 15.316969899984542, 15.333702400006587, 15.350319999997737, 15.366990799986525, 15.382584200007841, 15.399305700004334, 15.416228699992644, 15.432939099991927, 15.450065499986522, 15.46670190000441, 15.483434800000396, 15.500042700004997, 15.51678350000293, 15.533374299993739, 15.550038999994285, 15.56672420000541, 15.583398399990983, 15.600029900000663, 15.616738699987764, 15.633415299991611, 15.650092399999266, 15.666730600001756, 15.683661599992774, 16.190257799986284, 16.19951459998265, 16.215964900009567, 16.23282440000912, 16.250101499987068, 16.26609419999295, 16.28278819998377, 16.29929659998743, 16.316147300007287, 16.332729699992342, 16.349607499985723]",,,,,001,A,2022-10-21_19h59.02.047,psychopy,2022.2.4,59.95405120727696,
1,0,Images/Beach 2.jpg,2,6.2944,0.9767776457796615,0,0,0,0,0,0,0,0,,,,,0,5,5,39,,,,,25.720720500015887,26.220237900008215,,,,,,,,,,,,,,,,,,,,,,,,,,,,,,,,,,,,,,,,25.63845759999822,25.63845759999822,25.63845759999822,1,0,0.05517250002594665,None,0.0,0.0,0,0,0,0,0,0,0,0,0,0,0,16.86764400001266,"[0.0, 0.0, 0.0, 0.0, 0.0, 0.0, 0.0, 0.0, 0.0, 0.0, 0.0, 0.0, 0.0, 0.0, 0.0, 0.0, 0.0, 0.0, 0.0, 0.0, 0.0, 0.0, 0.0, 0.0, 0.0, 0.0, 0.0, 0.0, 0.0, 0.0, 0.0, 0.0, 0.0, 0.0, 0.0, 0.0, 0.0, 0.0, 0.0, 0.0, 0.0, 0.0, 0.0, 0.0, 0.0, 0.0, 0.0, 0.0, 0.0, 0.0, 0.0, 0.0, 0.0, 0.0, 0.0, 0.0, 0.0, 0.0, 0.0, 0.0, 0.0, 0.0, 0.0, 0.0, 0.0, 0.0, 0.0, 0.0, 0.0, 0.0, 0.0, 0.0, 0.0, 0.0, 0.0, 0.0, 0.0, 0.0, 0.0, 0.0, 0.0, 0.0, 0.0]","[0.0, 0.0, 0.0, 0.0, 0.0, 0.0, 0.0, 0.0, 0.0, 0.0, 0.0, 0.0, 0.0, 0.0, 0.0, 0.0, 0.0, 0.0, 0.0, 0.0, 0.0, 0.0, 0.0, 0.0, 0.0, 0.0, 0.0, 0.0, 0.0, 0.0, 0.0, 0.0, 0.0, 0.0, 0.0, 0.0, 0.0, 0.0, 0.0, 0.0, 0.0, 0.0, 0.0, 0.0, 0.0, 0.0, 0.0, 0.0, 0.0, 0.0, 0.0, 0.0, 0.0, 0.0, 0.0, 0.0, 0.0, 0.0, 0.0, 0.0, 0.0, 0.0, 0.0, 0.0, 0.0, 0.0, 0.0, 0.0, 0.0, 0.0, 0.0, 0.0, 0.0, 0.0, 0.0, 0.0, 0.0, 0.0, 0.0, 0.0, 0.0, 0.0, 0.0]","[13.155292799987365, 13.16282900000806, 13.18147380001028, 13.1991965000052, 13.216026999987662, 13.233417299983557, 13.25010750000365, 13.266863500000909, 13.283564499986824, 13.300275699992198, 13.31683090000297, 13.333518500003265, 13.35023059998639, 13.366841299983207, 13.382466199982446, 13.399376999994274, 13.416134900006, 13.433248599991202, 13.450062799995067, 13.46669760000077, 13.483400600001914, 13.500111300003482, 13.516744099993957, 13.533426299982239, 13.550041799986502, 13.566751999984263, 13.583371799992165, 13.600079099996947, 13.616867100005038, 14.120377899991581, 14.132732500002021, 14.149323499994352, 14.165953099989565, 14.182771199994022, 14.690113199991174, 14.699431899993215, 14.715768699999899, 14.734186499990756, 14.751162200002, 15.260495099995751, 15.270036500005517, 15.283614399988437, 15.300335200008703, 15.316969899984542, 15.333702400006587, 15.350319999997737, 15.366990799986525, 15.382584200007841, 15.399305700004334, 15.416228699992644, 15.432939099991927, 15.450065499986522, 15.46670190000441, 15.483434800000396, 15.500042700004997, 15.51678350000293, 15.533374299993739, 15.550038999994285, 15.56672420000541, 15.583398399990983, 15.600029900000663, 15.616738699987764, 15.633415299991611, 15.650092399999266, 15.666730600001756, 15.683661599992774, 16.190257799986284, 16.19951459998265, 16.215964900009567, 16.23282440000912, 16.250101499987068, 16.26609419999295, 16.28278819998377, 16.29929659998743, 16.316147300007287, 16.332729699992342, 16.349607499985723, 16.857232799986377, 16.868122699990636, 16.883161700010533, 16.89983310000389, 16.91660110000521, 16.933230800001184]",,,,,001,A,2022-10-21_19h59.02.047,psychopy,2022.2.4,59.95405120727696,
1,0,Images/Bridge 1.jpg,2,5.9383,0.13339846379913733,0,0,0,0,0,0,0,0,,,,,0,6,6,50,,,,,26.28737400000682,26.787506299995584,,,,,,,,,,,,,,,,,,,,,,,,,,,,,,,,,,,,,,,,26.220237900008215,26.220237900008215,26.220237900008215,1,0,0.04142529997625388,None,0.0,0.0,0,0,0,0,0,0,0,0,0,0,0,17.434598299994832,"[0.0, 0.0, 0.0, 0.0, 0.0, 0.0, 0.0, 0.0, 0.0, 0.0, 0.0, 0.0, 0.0, 0.0, 0.0, 0.0, 0.0, 0.0, 0.0, 0.0, 0.0, 0.0, 0.0, 0.0, 0.0, 0.0, 0.0, 0.0, 0.0, 0.0, 0.0, 0.0, 0.0, 0.0, 0.0, 0.0, 0.0, 0.0, 0.0, 0.0, 0.0, 0.0, 0.0, 0.0, 0.0, 0.0, 0.0, 0.0, 0.0, 0.0, 0.0, 0.0, 0.0, 0.0, 0.0, 0.0, 0.0, 0.0, 0.0, 0.0, 0.0, 0.0, 0.0, 0.0, 0.0, 0.0, 0.0, 0.0, 0.0, 0.0, 0.0, 0.0, 0.0, 0.0, 0.0, 0.0, 0.0, 0.0, 0.0, 0.0, 0.0, 0.0, 0.0, 0.0, 0.0, 0.0, 0.0, 0.0]","[0.0, 0.0, 0.0, 0.0, 0.0, 0.0, 0.0, 0.0, 0.0, 0.0, 0.0, 0.0, 0.0, 0.0, 0.0, 0.0, 0.0, 0.0, 0.0, 0.0, 0.0, 0.0, 0.0, 0.0, 0.0, 0.0, 0.0, 0.0, 0.0, 0.0, 0.0, 0.0, 0.0, 0.0, 0.0, 0.0, 0.0, 0.0, 0.0, 0.0, 0.0, 0.0, 0.0, 0.0, 0.0, 0.0, 0.0, 0.0, 0.0, 0.0, 0.0, 0.0, 0.0, 0.0, 0.0, 0.0, 0.0, 0.0, 0.0, 0.0, 0.0, 0.0, 0.0, 0.0, 0.0, 0.0, 0.0, 0.0, 0.0, 0.0, 0.0, 0.0, 0.0, 0.0, 0.0, 0.0, 0.0, 0.0, 0.0, 0.0, 0.0, 0.0, 0.0, 0.0, 0.0, 0.0, 0.0, 0.0]","[13.155292799987365, 13.16282900000806, 13.18147380001028, 13.1991965000052, 13.216026999987662, 13.233417299983557, 13.25010750000365, 13.266863500000909, 13.283564499986824, 13.300275699992198, 13.31683090000297, 13.333518500003265, 13.35023059998639, 13.366841299983207, 13.382466199982446, 13.399376999994274, 13.416134900006, 13.433248599991202, 13.450062799995067, 13.46669760000077, 13.483400600001914, 13.500111300003482, 13.516744099993957, 13.533426299982239, 13.550041799986502, 13.566751999984263, 13.583371799992165, 13.600079099996947, 13.616867100005038, 14.120377899991581, 14.132732500002021, 14.149323499994352, 14.165953099989565, 14.182771199994022, 14.690113199991174, 14.699431899993215, 14.715768699999899, 14.734186499990756, 14.751162200002, 15.260495099995751, 15.270036500005517, 15.283614399988437, 15.300335200008703, 15.316969899984542, 15.333702400006587, 15.350319999997737, 15.366990799986525, 15.382584200007841, 15.399305700004334, 15.416228699992644, 15.432939099991927, 15.450065499986522, 15.46670190000441, 15.483434800000396, 15.500042700004997, 15.51678350000293, 15.533374299993739, 15.550038999994285, 15.56672420000541, 15.583398399990983, 15.600029900000663, 15.616738699987764, 15.633415299991611, 15.650092399999266, 15.666730600001756, 15.683661599992774, 16.190257799986284, 16.19951459998265, 16.215964900009567, 16.23282440000912, 16.250101499987068, 16.26609419999295, 16.28278819998377, 16.29929659998743, 16.316147300007287, 16.332729699992342, 16.349607499985723, 16.857232799986377, 16.868122699990636, 16.883161700010533, 16.89983310000389, 16.91660110000521, 16.933230800001184, 17.440238699986367, 17.449351099989144, 17.46609939998598, 17.483065799984615, 17.500120099983178]",,,,,001,A,2022-10-21_19h59.02.047,psychopy,2022.2.4,59.95405120727696,
1,0,Images/Tornado 4.jpg,2,2.7192,0.04515441392123898,0,0,0,0,0,0,0,0,,,,,0,7,7,2,,,,,26.836917500011623,27.339739400020335,,,,,,,,,,,,,,,,,,,,,,,,,,,,,,,,,,,,,,,,26.787506299995584,26.787506299995584,26.787506299995584,1,0,0.017430100007914007,None,0.0,0.0,0,0,0,0,0,0,0,0,0,0,0,17.983244300005026,"[0.0, 0.0, 0.0, 0.0, 0.0, 0.0, 0.0, 0.0, 0.0, 0.0, 0.0, 0.0, 0.0, 0.0, 0.0, 0.0, 0.0, 0.0, 0.0, 0.0, 0.0, 0.0, 0.0, 0.0, 0.0, 0.0, 0.0, 0.0, 0.0, 0.0, 0.0, 0.0, 0.0, 0.0, 0.0, 0.0, 0.0, 0.0, 0.0, 0.0, 0.0, 0.0, 0.0, 0.0, 0.0, 0.0, 0.0, 0.0, 0.0, 0.0, 0.0, 0.0, 0.0, 0.0, 0.0, 0.0, 0.0, 0.0, 0.0, 0.0, 0.0, 0.0, 0.0, 0.0, 0.0, 0.0, 0.0, 0.0, 0.0, 0.0, 0.0, 0.0, 0.0, 0.0, 0.0, 0.0, 0.0, 0.0, 0.0, 0.0, 0.0, 0.0, 0.0, 0.0, 0.0, 0.0, 0.0, 0.0, 0.0, 0.0, 0.0, 0.0]","[0.0, 0.0, 0.0, 0.0, 0.0, 0.0, 0.0, 0.0, 0.0, 0.0, 0.0, 0.0, 0.0, 0.0, 0.0, 0.0, 0.0, 0.0, 0.0, 0.0, 0.0, 0.0, 0.0, 0.0, 0.0, 0.0, 0.0, 0.0, 0.0, 0.0, 0.0, 0.0, 0.0, 0.0, 0.0, 0.0, 0.0, 0.0, 0.0, 0.0, 0.0, 0.0, 0.0, 0.0, 0.0, 0.0, 0.0, 0.0, 0.0, 0.0, 0.0, 0.0, 0.0, 0.0, 0.0, 0.0, 0.0, 0.0, 0.0, 0.0, 0.0, 0.0, 0.0, 0.0, 0.0, 0.0, 0.0, 0.0, 0.0, 0.0, 0.0, 0.0, 0.0, 0.0, 0.0, 0.0, 0.0, 0.0, 0.0, 0.0, 0.0, 0.0, 0.0, 0.0, 0.0, 0.0, 0.0, 0.0, 0.0, 0.0, 0.0, 0.0]","[13.155292799987365, 13.16282900000806, 13.18147380001028, 13.1991965000052, 13.216026999987662, 13.233417299983557, 13.25010750000365, 13.266863500000909, 13.283564499986824, 13.300275699992198, 13.31683090000297, 13.333518500003265, 13.35023059998639, 13.366841299983207, 13.382466199982446, 13.399376999994274, 13.416134900006, 13.433248599991202, 13.450062799995067, 13.46669760000077, 13.483400600001914, 13.500111300003482, 13.516744099993957, 13.533426299982239, 13.550041799986502, 13.566751999984263, 13.583371799992165, 13.600079099996947, 13.616867100005038, 14.120377899991581, 14.132732500002021, 14.149323499994352, 14.165953099989565, 14.182771199994022, 14.690113199991174, 14.699431899993215, 14.715768699999899, 14.734186499990756, 14.751162200002, 15.260495099995751, 15.270036500005517, 15.283614399988437, 15.300335200008703, 15.316969899984542, 15.333702400006587, 15.350319999997737, 15.366990799986525, 15.382584200007841, 15.399305700004334, 15.416228699992644, 15.432939099991927, 15.450065499986522, 15.46670190000441, 15.483434800000396, 15.500042700004997, 15.51678350000293, 15.533374299993739, 15.550038999994285, 15.56672420000541, 15.583398399990983, 15.600029900000663, 15.616738699987764, 15.633415299991611, 15.650092399999266, 15.666730600001756, 15.683661599992774, 16.190257799986284, 16.19951459998265, 16.215964900009567, 16.23282440000912, 16.250101499987068, 16.26609419999295, 16.28278819998377, 16.29929659998743, 16.316147300007287, 16.332729699992342, 16.349607499985723, 16.857232799986377, 16.868122699990636, 16.883161700010533, 16.89983310000389, 16.91660110000521, 16.933230800001184, 17.440238699986367, 17.449351099989144, 17.46609939998598, 17.483065799984615, 17.500120099983178, 18.00820250000106, 18.01667089998955, 18.032668100000592, 18.04926929998328]",,,,,001,A,2022-10-21_19h59.02.047,psychopy,2022.2.4,59.95405120727696,
1,0,Images/Galaxy 2.jpg,2,5.7867,0.871390129257127,0,0,0,0,0,0,0,0,,,,,0,8,8,51,,,,,27.70435169999837,28.20347900001798,,,,,,,,,,,,,,,,,,,,,,,,,,,,,,,,,,,,,,,,27.339739400020335,27.339739400020335,27.339739400020335,1,0,0.33734430000185966,None,0.0,0.0,0,0,0,0,0,0,0,0,0,0,0,18.85235170001397,"[0.0, 0.0, 0.0, 0.0, 0.0, 0.0, 0.0, 0.0, 0.0, 0.0, 0.0, 0.0, 0.0, 0.0, 0.0, 0.0, 0.0, 0.0, 0.0, 0.0, 0.0, 0.0, 0.0, 0.0, 0.0, 0.0, 0.0, 0.0, 0.0, 0.0, 0.0, 0.0, 0.0, 0.0, 0.0, 0.0, 0.0, 0.0, 0.0, 0.0, 0.0, 0.0, 0.0, 0.0, 0.0, 0.0, 0.0, 0.0, 0.0, 0.0, 0.0, 0.0, 0.0, 0.0, 0.0, 0.0, 0.0, 0.0, 0.0, 0.0, 0.0, 0.0, 0.0, 0.0, 0.0, 0.0, 0.0, 0.0, 0.0, 0.0, 0.0, 0.0, 0.0, 0.0, 0.0, 0.0, 0.0, 0.0, 0.0, 0.0, 0.0, 0.0, 0.0, 0.0, 0.0, 0.0, 0.0, 0.0, 0.0, 0.0, 0.0, 0.0, 0.0, 0.0, 0.0, 0.0, 0.0, 0.0, 0.0, 0.0, 0.0, 0.0, 0.0, 0.0, 0.0, 0.0, 0.0, 0.0, 0.0, 0.0, 0.0, 0.0, 0.0, 0.0, 0.0]","[0.0, 0.0, 0.0, 0.0, 0.0, 0.0, 0.0, 0.0, 0.0, 0.0, 0.0, 0.0, 0.0, 0.0, 0.0, 0.0, 0.0, 0.0, 0.0, 0.0, 0.0, 0.0, 0.0, 0.0, 0.0, 0.0, 0.0, 0.0, 0.0, 0.0, 0.0, 0.0, 0.0, 0.0, 0.0, 0.0, 0.0, 0.0, 0.0, 0.0, 0.0, 0.0, 0.0, 0.0, 0.0, 0.0, 0.0, 0.0, 0.0, 0.0, 0.0, 0.0, 0.0, 0.0, 0.0, 0.0, 0.0, 0.0, 0.0, 0.0, 0.0, 0.0, 0.0, 0.0, 0.0, 0.0, 0.0, 0.0, 0.0, 0.0, 0.0, 0.0, 0.0, 0.0, 0.0, 0.0, 0.0, 0.0, 0.0, 0.0, 0.0, 0.0, 0.0, 0.0, 0.0, 0.0, 0.0, 0.0, 0.0, 0.0, 0.0, 0.0, 0.0, 0.0, 0.0, 0.0, 0.0, 0.0, 0.0, 0.0, 0.0, 0.0, 0.0, 0.0, 0.0, 0.0, 0.0, 0.0, 0.0, 0.0, 0.0, 0.0, 0.0, 0.0, 0.0]","[13.155292799987365, 13.16282900000806, 13.18147380001028, 13.1991965000052, 13.216026999987662, 13.233417299983557, 13.25010750000365, 13.266863500000909, 13.283564499986824, 13.300275699992198, 13.31683090000297, 13.333518500003265, 13.35023059998639, 13.366841299983207, 13.382466199982446, 13.399376999994274, 13.416134900006, 13.433248599991202, 13.450062799995067, 13.46669760000077, 13.483400600001914, 13.500111300003482, 13.516744099993957, 13.533426299982239, 13.550041799986502, 13.566751999984263, 13.583371799992165, 13.600079099996947, 13.616867100005038, 14.120377899991581, 14.132732500002021, 14.149323499994352, 14.165953099989565, 14.182771199994022, 14.690113199991174, 14.699431899993215, 14.715768699999899, 14.734186499990756, 14.751162200002, 15.260495099995751, 15.270036500005517, 15.283614399988437, 15.300335200008703, 15.316969899984542, 15.333702400006587, 15.350319999997737, 15.366990799986525, 15.382584200007841, 15.399305700004334, 15.416228699992644, 15.432939099991927, 15.450065499986522, 15.46670190000441, 15.483434800000396, 15.500042700004997, 15.51678350000293, 15.533374299993739, 15.550038999994285, 15.56672420000541, 15.583398399990983, 15.600029900000663, 15.616738699987764, 15.633415299991611, 15.650092399999266, 15.666730600001756, 15.683661599992774, 16.190257799986284, 16.19951459998265, 16.215964900009567, 16.23282440000912, 16.250101499987068, 16.26609419999295, 16.28278819998377, 16.29929659998743, 16.316147300007287, 16.332729699992342, 16.349607499985723, 16.857232799986377, 16.868122699990636, 16.883161700010533, 16.89983310000389, 16.91660110000521, 16.933230800001184, 17.440238699986367, 17.449351099989144, 17.46609939998598, 17.483065799984615, 17.500120099983178, 18.00820250000106, 18.01667089998955, 18.032668100000592, 18.04926929998328, 18.561178900010418, 18.56994719998329, 18.58382659999188, 18.600538400001824, 18.617222700006096, 18.633890500001144, 18.650519299990265, 18.66727279999759, 18.68389769998612, 18.700700899993535, 18.71718680000049, 18.73371520001092, 18.750530199991772, 18.767142500000773, 18.783820999989985, 18.800511000008555, 18.817158999998355, 18.833802300010575, 18.85042919998523, 18.867250899987994, 18.88379459999851, 18.900480899988906, 18.91736610000953]",,,,,001,A,2022-10-21_19h59.02.047,psychopy,2022.2.4,59.95405120727696,
1,0,Images/Frustrated pose 2.jpg,1,2.6481,0.07843080009801606,0,0,0,0,0,0,0,0,,,,,0,9,9,49,,,,,28.304386100004194,28.80383200000506,,,,,,,,,,,,,,,,,,,,,,,,,,,,,,,,,,,,,,,,28.20347900001798,28.20347900001798,28.20347900001798,1,1,0.0816161000111606,None,0.0,0.0,0,0,0,0,0,0,0,0,0,0,0,19.449964900006307,"[0.0, 0.0, 0.0, 0.0, 0.0, 0.0, 0.0, 0.0, 0.0, 0.0, 0.0, 0.0, 0.0, 0.0, 0.0, 0.0, 0.0, 0.0, 0.0, 0.0, 0.0, 0.0, 0.0, 0.0, 0.0, 0.0, 0.0, 0.0, 0.0, 0.0, 0.0, 0.0, 0.0, 0.0, 0.0, 0.0, 0.0, 0.0, 0.0, 0.0, 0.0, 0.0, 0.0, 0.0, 0.0, 0.0, 0.0, 0.0, 0.0, 0.0, 0.0, 0.0, 0.0, 0.0, 0.0, 0.0, 0.0, 0.0, 0.0, 0.0, 0.0, 0.0, 0.0, 0.0, 0.0, 0.0, 0.0, 0.0, 0.0, 0.0, 0.0, 0.0, 0.0, 0.0, 0.0, 0.0, 0.0, 0.0, 0.0, 0.0, 0.0, 0.0, 0.0, 0.0, 0.0, 0.0, 0.0, 0.0, 0.0, 0.0, 0.0, 0.0, 0.0, 0.0, 0.0, 0.0, 0.0, 0.0, 0.0, 0.0, 0.0, 0.0, 0.0, 0.0, 0.0, 0.0, 0.0, 0.0, 0.0, 0.0, 0.0, 0.0, 0.0, 0.0, 0.0, 0.0, 0.0, 0.0, 0.0, 0.0, 0.0, 0.0]","[0.0, 0.0, 0.0, 0.0, 0.0, 0.0, 0.0, 0.0, 0.0, 0.0, 0.0, 0.0, 0.0, 0.0, 0.0, 0.0, 0.0, 0.0, 0.0, 0.0, 0.0, 0.0, 0.0, 0.0, 0.0, 0.0, 0.0, 0.0, 0.0, 0.0, 0.0, 0.0, 0.0, 0.0, 0.0, 0.0, 0.0, 0.0, 0.0, 0.0, 0.0, 0.0, 0.0, 0.0, 0.0, 0.0, 0.0, 0.0, 0.0, 0.0, 0.0, 0.0, 0.0, 0.0, 0.0, 0.0, 0.0, 0.0, 0.0, 0.0, 0.0, 0.0, 0.0, 0.0, 0.0, 0.0, 0.0, 0.0, 0.0, 0.0, 0.0, 0.0, 0.0, 0.0, 0.0, 0.0, 0.0, 0.0, 0.0, 0.0, 0.0, 0.0, 0.0, 0.0, 0.0, 0.0, 0.0, 0.0, 0.0, 0.0, 0.0, 0.0, 0.0, 0.0, 0.0, 0.0, 0.0, 0.0, 0.0, 0.0, 0.0, 0.0, 0.0, 0.0, 0.0, 0.0, 0.0, 0.0, 0.0, 0.0, 0.0, 0.0, 0.0, 0.0, 0.0, 0.0, 0.0, 0.0, 0.0, 0.0, 0.0, 0.0]","[13.155292799987365, 13.16282900000806, 13.18147380001028, 13.1991965000052, 13.216026999987662, 13.233417299983557, 13.25010750000365, 13.266863500000909, 13.283564499986824, 13.300275699992198, 13.31683090000297, 13.333518500003265, 13.35023059998639, 13.366841299983207, 13.382466199982446, 13.399376999994274, 13.416134900006, 13.433248599991202, 13.450062799995067, 13.46669760000077, 13.483400600001914, 13.500111300003482, 13.516744099993957, 13.533426299982239, 13.550041799986502, 13.566751999984263, 13.583371799992165, 13.600079099996947, 13.616867100005038, 14.120377899991581, 14.132732500002021, 14.149323499994352, 14.165953099989565, 14.182771199994022, 14.690113199991174, 14.699431899993215, 14.715768699999899, 14.734186499990756, 14.751162200002, 15.260495099995751, 15.270036500005517, 15.283614399988437, 15.300335200008703, 15.316969899984542, 15.333702400006587, 15.350319999997737, 15.366990799986525, 15.382584200007841, 15.399305700004334, 15.416228699992644, 15.432939099991927, 15.450065499986522, 15.46670190000441, 15.483434800000396, 15.500042700004997, 15.51678350000293, 15.533374299993739, 15.550038999994285, 15.56672420000541, 15.583398399990983, 15.600029900000663, 15.616738699987764, 15.633415299991611, 15.650092399999266, 15.666730600001756, 15.683661599992774, 16.190257799986284, 16.19951459998265, 16.215964900009567, 16.23282440000912, 16.250101499987068, 16.26609419999295, 16.28278819998377, 16.29929659998743, 16.316147300007287, 16.332729699992342, 16.349607499985723, 16.857232799986377, 16.868122699990636, 16.883161700010533, 16.89983310000389, 16.91660110000521, 16.933230800001184, 17.440238699986367, 17.449351099989144, 17.46609939998598, 17.483065799984615, 17.500120099983178, 18.00820250000106, 18.01667089998955, 18.032668100000592, 18.04926929998328, 18.561178900010418, 18.56994719998329, 18.58382659999188, 18.600538400001824, 18.617222700006096, 18.633890500001144, 18.650519299990265, 18.66727279999759, 18.68389769998612, 18.700700899993535, 18.71718680000049, 18.73371520001092, 18.750530199991772, 18.767142500000773, 18.783820999989985, 18.800511000008555, 18.817158999998355, 18.833802300010575, 18.85042919998523, 18.867250899987994, 18.88379459999851, 18.900480899988906, 18.91736610000953, 19.41896270000143, 19.43263689999003, 19.449265900009777, 19.466140400007134, 19.483270800003083, 19.500831399986055, 19.516182099992875]",,,,,001,A,2022-10-21_19h59.02.047,psychopy,2022.2.4,59.95405120727696,
1,0,Images/Hangover 1.jpg,1,2.3921,0.5142622623412806,0,0,0,0,0,0,0,0,,,,,0,10,10,45,,,,,28.853516700008186,29.35829550001654,,,,,,,,,,,,,,,,,,,,,,,,,,,,,,,,,,,,,,,,28.80383200000506,28.80383200000506,28.80383200000506,1,1,0.03328589999000542,None,0.0,0.0,0,0,0,0,0,0,0,0,0,0,0,19.999947100004647,"[0.0, 0.0, 0.0, 0.0, 0.0, 0.0, 0.0, 0.0, 0.0, 0.0, 0.0, 0.0, 0.0, 0.0, 0.0, 0.0, 0.0, 0.0, 0.0, 0.0, 0.0, 0.0, 0.0, 0.0, 0.0, 0.0, 0.0, 0.0, 0.0, 0.0, 0.0, 0.0, 0.0, 0.0, 0.0, 0.0, 0.0, 0.0, 0.0, 0.0, 0.0, 0.0, 0.0, 0.0, 0.0, 0.0, 0.0, 0.0, 0.0, 0.0, 0.0, 0.0, 0.0, 0.0, 0.0, 0.0, 0.0, 0.0, 0.0, 0.0, 0.0, 0.0, 0.0, 0.0, 0.0, 0.0, 0.0, 0.0, 0.0, 0.0, 0.0, 0.0, 0.0, 0.0, 0.0, 0.0, 0.0, 0.0, 0.0, 0.0, 0.0, 0.0, 0.0, 0.0, 0.0, 0.0, 0.0, 0.0, 0.0, 0.0, 0.0, 0.0, 0.0, 0.0, 0.0, 0.0, 0.0, 0.0, 0.0, 0.0, 0.0, 0.0, 0.0, 0.0, 0.0, 0.0, 0.0, 0.0, 0.0, 0.0, 0.0, 0.0, 0.0, 0.0, 0.0, 0.0, 0.0, 0.0, 0.0, 0.0, 0.0, 0.0, 0.0, 0.0, 0.0, 0.0]","[0.0, 0.0, 0.0, 0.0, 0.0, 0.0, 0.0, 0.0, 0.0, 0.0, 0.0, 0.0, 0.0, 0.0, 0.0, 0.0, 0.0, 0.0, 0.0, 0.0, 0.0, 0.0, 0.0, 0.0, 0.0, 0.0, 0.0, 0.0, 0.0, 0.0, 0.0, 0.0, 0.0, 0.0, 0.0, 0.0, 0.0, 0.0, 0.0, 0.0, 0.0, 0.0, 0.0, 0.0, 0.0, 0.0, 0.0, 0.0, 0.0, 0.0, 0.0, 0.0, 0.0, 0.0, 0.0, 0.0, 0.0, 0.0, 0.0, 0.0, 0.0, 0.0, 0.0, 0.0, 0.0, 0.0, 0.0, 0.0, 0.0, 0.0, 0.0, 0.0, 0.0, 0.0, 0.0, 0.0, 0.0, 0.0, 0.0, 0.0, 0.0, 0.0, 0.0, 0.0, 0.0, 0.0, 0.0, 0.0, 0.0, 0.0, 0.0, 0.0, 0.0, 0.0, 0.0, 0.0, 0.0, 0.0, 0.0, 0.0, 0.0, 0.0, 0.0, 0.0, 0.0, 0.0, 0.0, 0.0, 0.0, 0.0, 0.0, 0.0, 0.0, 0.0, 0.0, 0.0, 0.0, 0.0, 0.0, 0.0, 0.0, 0.0, 0.0, 0.0, 0.0, 0.0]","[13.155292799987365, 13.16282900000806, 13.18147380001028, 13.1991965000052, 13.216026999987662, 13.233417299983557, 13.25010750000365, 13.266863500000909, 13.283564499986824, 13.300275699992198, 13.31683090000297, 13.333518500003265, 13.35023059998639, 13.366841299983207, 13.382466199982446, 13.399376999994274, 13.416134900006, 13.433248599991202, 13.450062799995067, 13.46669760000077, 13.483400600001914, 13.500111300003482, 13.516744099993957, 13.533426299982239, 13.550041799986502, 13.566751999984263, 13.583371799992165, 13.600079099996947, 13.616867100005038, 14.120377899991581, 14.132732500002021, 14.149323499994352, 14.165953099989565, 14.182771199994022, 14.690113199991174, 14.699431899993215, 14.715768699999899, 14.734186499990756, 14.751162200002, 15.260495099995751, 15.270036500005517, 15.283614399988437, 15.300335200008703, 15.316969899984542, 15.333702400006587, 15.350319999997737, 15.366990799986525, 15.382584200007841, 15.399305700004334, 15.416228699992644, 15.432939099991927, 15.450065499986522, 15.46670190000441, 15.483434800000396, 15.500042700004997, 15.51678350000293, 15.533374299993739, 15.550038999994285, 15.56672420000541, 15.583398399990983, 15.600029900000663, 15.616738699987764, 15.633415299991611, 15.650092399999266, 15.666730600001756, 15.683661599992774, 16.190257799986284, 16.19951459998265, 16.215964900009567, 16.23282440000912, 16.250101499987068, 16.26609419999295, 16.28278819998377, 16.29929659998743, 16.316147300007287, 16.332729699992342, 16.349607499985723, 16.857232799986377, 16.868122699990636, 16.883161700010533, 16.89983310000389, 16.91660110000521, 16.933230800001184, 17.440238699986367, 17.449351099989144, 17.46609939998598, 17.483065799984615, 17.500120099983178, 18.00820250000106, 18.01667089998955, 18.032668100000592, 18.04926929998328, 18.561178900010418, 18.56994719998329, 18.58382659999188, 18.600538400001824, 18.617222700006096, 18.633890500001144, 18.650519299990265, 18.66727279999759, 18.68389769998612, 18.700700899993535, 18.71718680000049, 18.73371520001092, 18.750530199991772, 18.767142500000773, 18.783820999989985, 18.800511000008555, 18.817158999998355, 18.833802300010575, 18.85042919998523, 18.867250899987994, 18.88379459999851, 18.900480899988906, 18.91736610000953, 19.41896270000143, 19.43263689999003, 19.449265900009777, 19.466140400007134, 19.483270800003083, 19.500831399986055, 19.516182099992875, 20.02399570000125, 20.03295930000604, 20.04911669998546, 20.066055200004485]",,,,,001,A,2022-10-21_19h59.02.047,psychopy,2022.2.4,59.95405120727696,
1,0,Images/Jail 5.jpg,2,3.0599,0.07486446158300541,0,0,0,0,0,0,0,0,,,,,0,11,11,7,,,,,29.420211300021037,29.922954500012565,,,,,,,,,,,,,,,,,,,,,,,,,,,,,,,,,,,,,,,,29.35829550001654,29.35829550001654,29.35829550001654,1,0,0.03929250000510365,None,0.0,0.0,0,0,0,0,0,0,0,0,0,0,0,20.569606400007615,"[0.0, 0.0, 0.0, 0.0, 0.0, 0.0, 0.0, 0.0, 0.0, 0.0, 0.0, 0.0, 0.0, 0.0, 0.0, 0.0, 0.0, 0.0, 0.0, 0.0, 0.0, 0.0, 0.0, 0.0, 0.0, 0.0, 0.0, 0.0, 0.0, 0.0, 0.0, 0.0, 0.0, 0.0, 0.0, 0.0, 0.0, 0.0, 0.0, 0.0, 0.0, 0.0, 0.0, 0.0, 0.0, 0.0, 0.0, 0.0, 0.0, 0.0, 0.0, 0.0, 0.0, 0.0, 0.0, 0.0, 0.0, 0.0, 0.0, 0.0, 0.0, 0.0, 0.0, 0.0, 0.0, 0.0, 0.0, 0.0, 0.0, 0.0, 0.0, 0.0, 0.0, 0.0, 0.0, 0.0, 0.0, 0.0, 0.0, 0.0, 0.0, 0.0, 0.0, 0.0, 0.0, 0.0, 0.0, 0.0, 0.0, 0.0, 0.0, 0.0, 0.0, 0.0, 0.0, 0.0, 0.0, 0.0, 0.0, 0.0, 0.0, 0.0, 0.0, 0.0, 0.0, 0.0, 0.0, 0.0, 0.0, 0.0, 0.0, 0.0, 0.0, 0.0, 0.0, 0.0, 0.0, 0.0, 0.0, 0.0, 0.0, 0.0, 0.0, 0.0, 0.0, 0.0, 0.0, 0.0, 0.0, 0.0, 0.0]","[0.0, 0.0, 0.0, 0.0, 0.0, 0.0, 0.0, 0.0, 0.0, 0.0, 0.0, 0.0, 0.0, 0.0, 0.0, 0.0, 0.0, 0.0, 0.0, 0.0, 0.0, 0.0, 0.0, 0.0, 0.0, 0.0, 0.0, 0.0, 0.0, 0.0, 0.0, 0.0, 0.0, 0.0, 0.0, 0.0, 0.0, 0.0, 0.0, 0.0, 0.0, 0.0, 0.0, 0.0, 0.0, 0.0, 0.0, 0.0, 0.0, 0.0, 0.0, 0.0, 0.0, 0.0, 0.0, 0.0, 0.0, 0.0, 0.0, 0.0, 0.0, 0.0, 0.0, 0.0, 0.0, 0.0, 0.0, 0.0, 0.0, 0.0, 0.0, 0.0, 0.0, 0.0, 0.0, 0.0, 0.0, 0.0, 0.0, 0.0, 0.0, 0.0, 0.0, 0.0, 0.0, 0.0, 0.0, 0.0, 0.0, 0.0, 0.0, 0.0, 0.0, 0.0, 0.0, 0.0, 0.0, 0.0, 0.0, 0.0, 0.0, 0.0, 0.0, 0.0, 0.0, 0.0, 0.0, 0.0, 0.0, 0.0, 0.0, 0.0, 0.0, 0.0, 0.0, 0.0, 0.0, 0.0, 0.0, 0.0, 0.0, 0.0, 0.0, 0.0, 0.0, 0.0, 0.0, 0.0, 0.0, 0.0, 0.0]","[13.155292799987365, 13.16282900000806, 13.18147380001028, 13.1991965000052, 13.216026999987662, 13.233417299983557, 13.25010750000365, 13.266863500000909, 13.283564499986824, 13.300275699992198, 13.31683090000297, 13.333518500003265, 13.35023059998639, 13.366841299983207, 13.382466199982446, 13.399376999994274, 13.416134900006, 13.433248599991202, 13.450062799995067, 13.46669760000077, 13.483400600001914, 13.500111300003482, 13.516744099993957, 13.533426299982239, 13.550041799986502, 13.566751999984263, 13.583371799992165, 13.600079099996947, 13.616867100005038, 14.120377899991581, 14.132732500002021, 14.149323499994352, 14.165953099989565, 14.182771199994022, 14.690113199991174, 14.699431899993215, 14.715768699999899, 14.734186499990756, 14.751162200002, 15.260495099995751, 15.270036500005517, 15.283614399988437, 15.300335200008703, 15.316969899984542, 15.333702400006587, 15.350319999997737, 15.366990799986525, 15.382584200007841, 15.399305700004334, 15.416228699992644, 15.432939099991927, 15.450065499986522, 15.46670190000441, 15.483434800000396, 15.500042700004997, 15.51678350000293, 15.533374299993739, 15.550038999994285, 15.56672420000541, 15.583398399990983, 15.600029900000663, 15.616738699987764, 15.633415299991611, 15.650092399999266, 15.666730600001756, 15.683661599992774, 16.190257799986284, 16.19951459998265, 16.215964900009567, 16.23282440000912, 16.250101499987068, 16.26609419999295, 16.28278819998377, 16.29929659998743, 16.316147300007287, 16.332729699992342, 16.349607499985723, 16.857232799986377, 16.868122699990636, 16.883161700010533, 16.89983310000389, 16.91660110000521, 16.933230800001184, 17.440238699986367, 17.449351099989144, 17.46609939998598, 17.483065799984615, 17.500120099983178, 18.00820250000106, 18.01667089998955, 18.032668100000592, 18.04926929998328, 18.561178900010418, 18.56994719998329, 18.58382659999188, 18.600538400001824, 18.617222700006096, 18.633890500001144, 18.650519299990265, 18.66727279999759, 18.68389769998612, 18.700700899993535, 18.71718680000049, 18.73371520001092, 18.750530199991772, 18.767142500000773, 18.783820999989985, 18.800511000008555, 18.817158999998355, 18.833802300010575, 18.85042919998523, 18.867250899987994, 18.88379459999851, 18.900480899988906, 18.91736610000953, 19.41896270000143, 19.43263689999003, 19.449265900009777, 19.466140400007134, 19.483270800003083, 19.500831399986055, 19.516182099992875, 20.02399570000125, 20.03295930000604, 20.04911669998546, 20.066055200004485, 20.57792789998348, 20.58862150000641, 20.6009029999841, 20.617469499993604, 20.63441870000679]",,,,,001,A,2022-10-21_19h59.02.047,psychopy,2022.2.4,59.95405120727696,
1,0,Images/Cat 4.jpg,1,5.798,0.06333628944787684,0,0,0,0,0,0,0,0,,,,,0,12,12,38,,,,,29.987004700000398,30.50269439999829,,,,,,,,,,,,,,,,,,,,,,,,,,,,,,,,,,,,,,,,29.922954500012565,29.922954500012565,29.922954500012565,1,1,0.03441490000113845,None,0.0,0.0,0,0,0,0,0,0,0,0,0,0,0,21.133437999989837,"[0.0, 0.0, 0.0, 0.0, 0.0, 0.0, 0.0, 0.0, 0.0, 0.0, 0.0, 0.0, 0.0, 0.0, 0.0, 0.0, 0.0, 0.0, 0.0, 0.0, 0.0, 0.0, 0.0, 0.0, 0.0, 0.0, 0.0, 0.0, 0.0, 0.0, 0.0, 0.0, 0.0, 0.0, 0.0, 0.0, 0.0, 0.0, 0.0, 0.0, 0.0, 0.0, 0.0, 0.0, 0.0, 0.0, 0.0, 0.0, 0.0, 0.0, 0.0, 0.0, 0.0, 0.0, 0.0, 0.0, 0.0, 0.0, 0.0, 0.0, 0.0, 0.0, 0.0, 0.0, 0.0, 0.0, 0.0, 0.0, 0.0, 0.0, 0.0, 0.0, 0.0, 0.0, 0.0, 0.0, 0.0, 0.0, 0.0, 0.0, 0.0, 0.0, 0.0, 0.0, 0.0, 0.0, 0.0, 0.0, 0.0, 0.0, 0.0, 0.0, 0.0, 0.0, 0.0, 0.0, 0.0, 0.0, 0.0, 0.0, 0.0, 0.0, 0.0, 0.0, 0.0, 0.0, 0.0, 0.0, 0.0, 0.0, 0.0, 0.0, 0.0, 0.0, 0.0, 0.0, 0.0, 0.0, 0.0, 0.0, 0.0, 0.0, 0.0, 0.0, 0.0, 0.0, 0.0, 0.0, 0.0, 0.0, 0.0, 0.0, 0.0, 0.0, 0.0, 0.0]","[0.0, 0.0, 0.0, 0.0, 0.0, 0.0, 0.0, 0.0, 0.0, 0.0, 0.0, 0.0, 0.0, 0.0, 0.0, 0.0, 0.0, 0.0, 0.0, 0.0, 0.0, 0.0, 0.0, 0.0, 0.0, 0.0, 0.0, 0.0, 0.0, 0.0, 0.0, 0.0, 0.0, 0.0, 0.0, 0.0, 0.0, 0.0, 0.0, 0.0, 0.0, 0.0, 0.0, 0.0, 0.0, 0.0, 0.0, 0.0, 0.0, 0.0, 0.0, 0.0, 0.0, 0.0, 0.0, 0.0, 0.0, 0.0, 0.0, 0.0, 0.0, 0.0, 0.0, 0.0, 0.0, 0.0, 0.0, 0.0, 0.0, 0.0, 0.0, 0.0, 0.0, 0.0, 0.0, 0.0, 0.0, 0.0, 0.0, 0.0, 0.0, 0.0, 0.0, 0.0, 0.0, 0.0, 0.0, 0.0, 0.0, 0.0, 0.0, 0.0, 0.0, 0.0, 0.0, 0.0, 0.0, 0.0, 0.0, 0.0, 0.0, 0.0, 0.0, 0.0, 0.0, 0.0, 0.0, 0.0, 0.0, 0.0, 0.0, 0.0, 0.0, 0.0, 0.0, 0.0, 0.0, 0.0, 0.0, 0.0, 0.0, 0.0, 0.0, 0.0, 0.0, 0.0, 0.0, 0.0, 0.0, 0.0, 0.0, 0.0, 0.0, 0.0, 0.0, 0.0]","[13.155292799987365, 13.16282900000806, 13.18147380001028, 13.1991965000052, 13.216026999987662, 13.233417299983557, 13.25010750000365, 13.266863500000909, 13.283564499986824, 13.300275699992198, 13.31683090000297, 13.333518500003265, 13.35023059998639, 13.366841299983207, 13.382466199982446, 13.399376999994274, 13.416134900006, 13.433248599991202, 13.450062799995067, 13.46669760000077, 13.483400600001914, 13.500111300003482, 13.516744099993957, 13.533426299982239, 13.550041799986502, 13.566751999984263, 13.583371799992165, 13.600079099996947, 13.616867100005038, 14.120377899991581, 14.132732500002021, 14.149323499994352, 14.165953099989565, 14.182771199994022, 14.690113199991174, 14.699431899993215, 14.715768699999899, 14.734186499990756, 14.751162200002, 15.260495099995751, 15.270036500005517, 15.283614399988437, 15.300335200008703, 15.316969899984542, 15.333702400006587, 15.350319999997737, 15.366990799986525, 15.382584200007841, 15.399305700004334, 15.416228699992644, 15.432939099991927, 15.450065499986522, 15.46670190000441, 15.483434800000396, 15.500042700004997, 15.51678350000293, 15.533374299993739, 15.550038999994285, 15.56672420000541, 15.583398399990983, 15.600029900000663, 15.616738699987764, 15.633415299991611, 15.650092399999266, 15.666730600001756, 15.683661599992774, 16.190257799986284, 16.19951459998265, 16.215964900009567, 16.23282440000912, 16.250101499987068, 16.26609419999295, 16.28278819998377, 16.29929659998743, 16.316147300007287, 16.332729699992342, 16.349607499985723, 16.857232799986377, 16.868122699990636, 16.883161700010533, 16.89983310000389, 16.91660110000521, 16.933230800001184, 17.440238699986367, 17.449351099989144, 17.46609939998598, 17.483065799984615, 17.500120099983178, 18.00820250000106, 18.01667089998955, 18.032668100000592, 18.04926929998328, 18.561178900010418, 18.56994719998329, 18.58382659999188, 18.600538400001824, 18.617222700006096, 18.633890500001144, 18.650519299990265, 18.66727279999759, 18.68389769998612, 18.700700899993535, 18.71718680000049, 18.73371520001092, 18.750530199991772, 18.767142500000773, 18.783820999989985, 18.800511000008555, 18.817158999998355, 18.833802300010575, 18.85042919998523, 18.867250899987994, 18.88379459999851, 18.900480899988906, 18.91736610000953, 19.41896270000143, 19.43263689999003, 19.449265900009777, 19.466140400007134, 19.483270800003083, 19.500831399986055, 19.516182099992875, 20.02399570000125, 20.03295930000604, 20.04911669998546, 20.066055200004485, 20.57792789998348, 20.58862150000641, 20.6009029999841, 20.617469499993604, 20.63441870000679, 21.142978999996558, 21.152688100002706, 21.166605700011132, 21.18325360000017, 21.199565299990354]",,,,,001,A,2022-10-21_19h59.02.047,psychopy,2022.2.4,59.95405120727696,
1,0,Images/Car Accident 3.jpg,2,2.7945,0.7732278009857427,0,0,0,0,0,0,0,0,,,,,0,13,13,58,,,,,31.02063630000339,31.520613700005924,,,,,,,,,,,,,,,,,,,,,,,,,,,,,,,,,,,,,,,,30.50269439999829,30.50269439999829,30.50269439999829,1,0,0.4871935000119265,None,0.0,0.0,0,0,0,0,0,0,0,0,0,0,0,22.166931699990528,"[0.0, 0.0, 0.0, 0.0, 0.0, 0.0, 0.0, 0.0, 0.0, 0.0, 0.0, 0.0, 0.0, 0.0, 0.0, 0.0, 0.0, 0.0, 0.0, 0.0, 0.0, 0.0, 0.0, 0.0, 0.0, 0.0, 0.0, 0.0, 0.0, 0.0, 0.0, 0.0, 0.0, 0.0, 0.0, 0.0, 0.0, 0.0, 0.0, 0.0, 0.0, 0.0, 0.0, 0.0, 0.0, 0.0, 0.0, 0.0, 0.0, 0.0, 0.0, 0.0, 0.0, 0.0, 0.0, 0.0, 0.0, 0.0, 0.0, 0.0, 0.0, 0.0, 0.0, 0.0, 0.0, 0.0, 0.0, 0.0, 0.0, 0.0, 0.0, 0.0, 0.0, 0.0, 0.0, 0.0, 0.0, 0.0, 0.0, 0.0, 0.0, 0.0, 0.0, 0.0, 0.0, 0.0, 0.0, 0.0, 0.0, 0.0, 0.0, 0.0, 0.0, 0.0, 0.0, 0.0, 0.0, 0.0, 0.0, 0.0, 0.0, 0.0, 0.0, 0.0, 0.0, 0.0, 0.0, 0.0, 0.0, 0.0, 0.0, 0.0, 0.0, 0.0, 0.0, 0.0, 0.0, 0.0, 0.0, 0.0, 0.0, 0.0, 0.0, 0.0, 0.0, 0.0, 0.0, 0.0, 0.0, 0.0, 0.0, 0.0, 0.0, 0.0, 0.0, 0.0, 0.0, 0.0, 0.0, 0.0, 0.0, 0.0, 0.0, 0.0, 0.0, 0.0, 0.0, 0.0, 0.0, 0.0, 0.0, 0.0, 0.0, 0.0, 0.0, 0.0, 0.0, 0.0, 0.0, 0.0, 0.0, 0.0, 0.0, 0.0, 0.0, 0.0, 0.0, 0.0]","[0.0, 0.0, 0.0, 0.0, 0.0, 0.0, 0.0, 0.0, 0.0, 0.0, 0.0, 0.0, 0.0, 0.0, 0.0, 0.0, 0.0, 0.0, 0.0, 0.0, 0.0, 0.0, 0.0, 0.0, 0.0, 0.0, 0.0, 0.0, 0.0, 0.0, 0.0, 0.0, 0.0, 0.0, 0.0, 0.0, 0.0, 0.0, 0.0, 0.0, 0.0, 0.0, 0.0, 0.0, 0.0, 0.0, 0.0, 0.0, 0.0, 0.0, 0.0, 0.0, 0.0, 0.0, 0.0, 0.0, 0.0, 0.0, 0.0, 0.0, 0.0, 0.0, 0.0, 0.0, 0.0, 0.0, 0.0, 0.0, 0.0, 0.0, 0.0, 0.0, 0.0, 0.0, 0.0, 0.0, 0.0, 0.0, 0.0, 0.0, 0.0, 0.0, 0.0, 0.0, 0.0, 0.0, 0.0, 0.0, 0.0, 0.0, 0.0, 0.0, 0.0, 0.0, 0.0, 0.0, 0.0, 0.0, 0.0, 0.0, 0.0, 0.0, 0.0, 0.0, 0.0, 0.0, 0.0, 0.0, 0.0, 0.0, 0.0, 0.0, 0.0, 0.0, 0.0, 0.0, 0.0, 0.0, 0.0, 0.0, 0.0, 0.0, 0.0, 0.0, 0.0, 0.0, 0.0, 0.0, 0.0, 0.0, 0.0, 0.0, 0.0, 0.0, 0.0, 0.0, 0.0, 0.0, 0.0, 0.0, 0.0, 0.0, 0.0, 0.0, 0.0, 0.0, 0.0, 0.0, 0.0, 0.0, 0.0, 0.0, 0.0, 0.0, 0.0, 0.0, 0.0, 0.0, 0.0, 0.0, 0.0, 0.0, 0.0, 0.0, 0.0, 0.0, 0.0, 0.0]","[13.155292799987365, 13.16282900000806, 13.18147380001028, 13.1991965000052, 13.216026999987662, 13.233417299983557, 13.25010750000365, 13.266863500000909, 13.283564499986824, 13.300275699992198, 13.31683090000297, 13.333518500003265, 13.35023059998639, 13.366841299983207, 13.382466199982446, 13.399376999994274, 13.416134900006, 13.433248599991202, 13.450062799995067, 13.46669760000077, 13.483400600001914, 13.500111300003482, 13.516744099993957, 13.533426299982239, 13.550041799986502, 13.566751999984263, 13.583371799992165, 13.600079099996947, 13.616867100005038, 14.120377899991581, 14.132732500002021, 14.149323499994352, 14.165953099989565, 14.182771199994022, 14.690113199991174, 14.699431899993215, 14.715768699999899, 14.734186499990756, 14.751162200002, 15.260495099995751, 15.270036500005517, 15.283614399988437, 15.300335200008703, 15.316969899984542, 15.333702400006587, 15.350319999997737, 15.366990799986525, 15.382584200007841, 15.399305700004334, 15.416228699992644, 15.432939099991927, 15.450065499986522, 15.46670190000441, 15.483434800000396, 15.500042700004997, 15.51678350000293, 15.533374299993739, 15.550038999994285, 15.56672420000541, 15.583398399990983, 15.600029900000663, 15.616738699987764, 15.633415299991611, 15.650092399999266, 15.666730600001756, 15.683661599992774, 16.190257799986284, 16.19951459998265, 16.215964900009567, 16.23282440000912, 16.250101499987068, 16.26609419999295, 16.28278819998377, 16.29929659998743, 16.316147300007287, 16.332729699992342, 16.349607499985723, 16.857232799986377, 16.868122699990636, 16.883161700010533, 16.89983310000389, 16.91660110000521, 16.933230800001184, 17.440238699986367, 17.449351099989144, 17.46609939998598, 17.483065799984615, 17.500120099983178, 18.00820250000106, 18.01667089998955, 18.032668100000592, 18.04926929998328, 18.561178900010418, 18.56994719998329, 18.58382659999188, 18.600538400001824, 18.617222700006096, 18.633890500001144, 18.650519299990265, 18.66727279999759, 18.68389769998612, 18.700700899993535, 18.71718680000049, 18.73371520001092, 18.750530199991772, 18.767142500000773, 18.783820999989985, 18.800511000008555, 18.817158999998355, 18.833802300010575, 18.85042919998523, 18.867250899987994, 18.88379459999851, 18.900480899988906, 18.91736610000953, 19.41896270000143, 19.43263689999003, 19.449265900009777, 19.466140400007134, 19.483270800003083, 19.500831399986055, 19.516182099992875, 20.02399570000125, 20.03295930000604, 20.04911669998546, 20.066055200004485, 20.57792789998348, 20.58862150000641, 20.6009029999841, 20.617469499993604, 20.63441870000679, 21.142978999996558, 21.152688100002706, 21.166605700011132, 21.18325360000017, 21.199565299990354, 21.71263359999284, 21.731829199998174, 21.749202600010904, 21.765955199982272, 21.782743499992648, 21.7996945999912, 21.816655100003118, 21.833130399987567, 21.849779599986505, 21.866415299999062, 21.883043200010434, 21.899763399997028, 21.916454199992586, 21.933140799985267, 21.94971899999655, 21.966445800004294, 21.98303509998368, 21.99976949999109, 22.016396899998654, 22.033064799994463, 22.04979399999138, 22.066360700002406, 22.083064000005834, 22.099783499987097, 22.11646049999399, 22.133174499991583, 22.149763399997028, 22.16641089998302, 22.183099099987885, 22.199630599992815, 22.21575929998653, 22.232858600007603]",,,,,001,A,2022-10-21_19h59.02.047,psychopy,2022.2.4,59.95405120727696,
,,,,,,,,,,,,,,,,,,,,,,,,,,32.53742370000691,,,,,,,,,,,,,,,,,,,,,,,,,,,,,,,,,,,,,,,,,31.520613700005924,31.520613700005924,31.520613700005924,None,0,,None,0.0,0.0,0,0,0,0,0,0,0,0,0,0,0,23.683335400011856,"[0.0, 0.0, 0.0, 0.0, 0.0, 0.0, 0.0, 0.0, 0.0, 0.0, 0.0, 0.0, 0.0, 0.0, 0.0, 0.0, 0.0, 0.0, 0.0, 0.0, 0.0, 0.0, 0.0, 0.0, 0.0, 0.0, 0.0, 0.0, 0.0, 0.0, 0.0, 0.0, 0.0, 0.0, 0.0, 0.0, 0.0, 0.0, 0.0, 0.0, 0.0, 0.0, 0.0, 0.0, 0.0, 0.0, 0.0, 0.0, 0.0, 0.0, 0.0, 0.0, 0.0, 0.0, 0.0, 0.0, 0.0, 0.0, 0.0, 0.0, 0.0, 0.0, 0.0, 0.0, 0.0, 0.0, 0.0, 0.0, 0.0, 0.0, 0.0, 0.0, 0.0, 0.0, 0.0, 0.0, 0.0, 0.0, 0.0, 0.0, 0.0, 0.0, 0.0, 0.0, 0.0, 0.0, 0.0, 0.0, 0.0, 0.0, 0.0, 0.0, 0.0, 0.0, 0.0, 0.0, 0.0, 0.0, 0.0, 0.0, 0.0, 0.0, 0.0, 0.0, 0.0, 0.0, 0.0, 0.0, 0.0, 0.0, 0.0, 0.0, 0.0, 0.0, 0.0, 0.0, 0.0, 0.0, 0.0, 0.0, 0.0, 0.0, 0.0, 0.0, 0.0, 0.0, 0.0, 0.0, 0.0, 0.0, 0.0, 0.0, 0.0, 0.0, 0.0, 0.0, 0.0, 0.0, 0.0, 0.0, 0.0, 0.0, 0.0, 0.0, 0.0, 0.0, 0.0, 0.0, 0.0, 0.0, 0.0, 0.0, 0.0, 0.0, 0.0, 0.0, 0.0, 0.0, 0.0, 0.0, 0.0, 0.0, 0.0, 0.0, 0.0, 0.0, 0.0, 0.0, 0.0, 0.0, 0.0, 0.0, 0.0, 0.0, 0.0, 0.0, 0.0, 0.0, 0.0, 0.0, 0.0, 0.0, 0.0, 0.0, 0.0, 0.0, 0.0, 0.0, 0.0, 0.0, 0.0, 0.0, 0.0, 0.0, 0.0, 0.0, 0.0, 0.0, 0.0, 0.0, 0.0, 0.0, 0.0, 0.0, 0.0, 0.0, 0.0, 0.0, 0.0, 0.0, 0.0, 0.0, 0.0, 0.0, 0.0, 0.0, 0.0, 0.0, 0.0, 0.0, 0.0, 0.0, 0.0, 0.0, 0.0, 0.0, 0.0, 0.0, 0.0]","[0.0, 0.0, 0.0, 0.0, 0.0, 0.0, 0.0, 0.0, 0.0, 0.0, 0.0, 0.0, 0.0, 0.0, 0.0, 0.0, 0.0, 0.0, 0.0, 0.0, 0.0, 0.0, 0.0, 0.0, 0.0, 0.0, 0.0, 0.0, 0.0, 0.0, 0.0, 0.0, 0.0, 0.0, 0.0, 0.0, 0.0, 0.0, 0.0, 0.0, 0.0, 0.0, 0.0, 0.0, 0.0, 0.0, 0.0, 0.0, 0.0, 0.0, 0.0, 0.0, 0.0, 0.0, 0.0, 0.0, 0.0, 0.0, 0.0, 0.0, 0.0, 0.0, 0.0, 0.0, 0.0, 0.0, 0.0, 0.0, 0.0, 0.0, 0.0, 0.0, 0.0, 0.0, 0.0, 0.0, 0.0, 0.0, 0.0, 0.0, 0.0, 0.0, 0.0, 0.0, 0.0, 0.0, 0.0, 0.0, 0.0, 0.0, 0.0, 0.0, 0.0, 0.0, 0.0, 0.0, 0.0, 0.0, 0.0, 0.0, 0.0, 0.0, 0.0, 0.0, 0.0, 0.0, 0.0, 0.0, 0.0, 0.0, 0.0, 0.0, 0.0, 0.0, 0.0, 0.0, 0.0, 0.0, 0.0, 0.0, 0.0, 0.0, 0.0, 0.0, 0.0, 0.0, 0.0, 0.0, 0.0, 0.0, 0.0, 0.0, 0.0, 0.0, 0.0, 0.0, 0.0, 0.0, 0.0, 0.0, 0.0, 0.0, 0.0, 0.0, 0.0, 0.0, 0.0, 0.0, 0.0, 0.0, 0.0, 0.0, 0.0, 0.0, 0.0, 0.0, 0.0, 0.0, 0.0, 0.0, 0.0, 0.0, 0.0, 0.0, 0.0, 0.0, 0.0, 0.0, 0.0, 0.0, 0.0, 0.0, 0.0, 0.0, 0.0, 0.0, 0.0, 0.0, 0.0, 0.0, 0.0, 0.0, 0.0, 0.0, 0.0, 0.0, 0.0, 0.0, 0.0, 0.0, 0.0, 0.0, 0.0, 0.0, 0.0, 0.0, 0.0, 0.0, 0.0, 0.0, 0.0, 0.0, 0.0, 0.0, 0.0, 0.0, 0.0, 0.0, 0.0, 0.0, 0.0, 0.0, 0.0, 0.0, 0.0, 0.0, 0.0, 0.0, 0.0, 0.0, 0.0, 0.0, 0.0, 0.0, 0.0, 0.0, 0.0, 0.0, 0.0]","[13.155292799987365, 13.16282900000806, 13.18147380001028, 13.1991965000052, 13.216026999987662, 13.233417299983557, 13.25010750000365, 13.266863500000909, 13.283564499986824, 13.300275699992198, 13.31683090000297, 13.333518500003265, 13.35023059998639, 13.366841299983207, 13.382466199982446, 13.399376999994274, 13.416134900006, 13.433248599991202, 13.450062799995067, 13.46669760000077, 13.483400600001914, 13.500111300003482, 13.516744099993957, 13.533426299982239, 13.550041799986502, 13.566751999984263, 13.583371799992165, 13.600079099996947, 13.616867100005038, 14.120377899991581, 14.132732500002021, 14.149323499994352, 14.165953099989565, 14.182771199994022, 14.690113199991174, 14.699431899993215, 14.715768699999899, 14.734186499990756, 14.751162200002, 15.260495099995751, 15.270036500005517, 15.283614399988437, 15.300335200008703, 15.316969899984542, 15.333702400006587, 15.350319999997737, 15.366990799986525, 15.382584200007841, 15.399305700004334, 15.416228699992644, 15.432939099991927, 15.450065499986522, 15.46670190000441, 15.483434800000396, 15.500042700004997, 15.51678350000293, 15.533374299993739, 15.550038999994285, 15.56672420000541, 15.583398399990983, 15.600029900000663, 15.616738699987764, 15.633415299991611, 15.650092399999266, 15.666730600001756, 15.683661599992774, 16.190257799986284, 16.19951459998265, 16.215964900009567, 16.23282440000912, 16.250101499987068, 16.26609419999295, 16.28278819998377, 16.29929659998743, 16.316147300007287, 16.332729699992342, 16.349607499985723, 16.857232799986377, 16.868122699990636, 16.883161700010533, 16.89983310000389, 16.91660110000521, 16.933230800001184, 17.440238699986367, 17.449351099989144, 17.46609939998598, 17.483065799984615, 17.500120099983178, 18.00820250000106, 18.01667089998955, 18.032668100000592, 18.04926929998328, 18.561178900010418, 18.56994719998329, 18.58382659999188, 18.600538400001824, 18.617222700006096, 18.633890500001144, 18.650519299990265, 18.66727279999759, 18.68389769998612, 18.700700899993535, 18.71718680000049, 18.73371520001092, 18.750530199991772, 18.767142500000773, 18.783820999989985, 18.800511000008555, 18.817158999998355, 18.833802300010575, 18.85042919998523, 18.867250899987994, 18.88379459999851, 18.900480899988906, 18.91736610000953, 19.41896270000143, 19.43263689999003, 19.449265900009777, 19.466140400007134, 19.483270800003083, 19.500831399986055, 19.516182099992875, 20.02399570000125, 20.03295930000604, 20.04911669998546, 20.066055200004485, 20.57792789998348, 20.58862150000641, 20.6009029999841, 20.617469499993604, 20.63441870000679, 21.142978999996558, 21.152688100002706, 21.166605700011132, 21.18325360000017, 21.199565299990354, 21.71263359999284, 21.731829199998174, 21.749202600010904, 21.765955199982272, 21.782743499992648, 21.7996945999912, 21.816655100003118, 21.833130399987567, 21.849779599986505, 21.866415299999062, 21.883043200010434, 21.899763399997028, 21.916454199992586, 21.933140799985267, 21.94971899999655, 21.966445800004294, 21.98303509998368, 21.99976949999109, 22.016396899998654, 22.033064799994463, 22.04979399999138, 22.066360700002406, 22.083064000005834, 22.099783499987097, 22.11646049999399, 22.133174499991583, 22.149763399997028, 22.16641089998302, 22.183099099987885, 22.199630599992815, 22.21575929998653, 22.232858600007603, 22.739958199992543, 22.749740100000054, 22.76596900000004, 22.782787600008305, 22.7998532000056, 22.81748460000381, 22.834094299993012, 22.850809299998218, 22.86744470000849, 22.884134699997958, 22.90083629998844, 22.917545000003884, 22.932855799997924, 22.949254899984226, 22.9659823999973, 22.982820999983232, 22.999900199996773, 23.01669980000588, 23.03339299999061, 23.05008960000123, 23.066680399992038, 23.08342789998278, 23.10002899999381, 23.116584500006866, 23.133403099986026, 23.15010979998624, 23.166715800005477, 23.18348929999047, 23.200037600006908, 23.216696499992395, 23.23336990000098, 23.250136999995448, 23.266768500005128, 23.283392599987565, 23.30007040000055, 23.316586500004632, 23.33338779999758, 23.35004309998476, 23.366822699987097, 23.383395599987125, 23.400153599999612, 23.41675629999372, 23.433312599983765, 23.449993799993536, 23.46675459999824, 23.483371000009356, 23.500048499990953, 23.516668199998094, 23.533297799993306, 23.549964799982263, 23.566617700009374, 23.583290399983525, 23.59999489999609, 23.616642699984368, 23.633337000006577, 23.65002060000552, 23.6666494999954, 23.683416499989107, 23.700009799998952, 23.716666199994506, 23.732775299984496]",32.52074950002134,32.52074950002134,32.52074950002134,,,,,,,,
