ImageFile,AnimateInanimate,ValenceScore,Rand,trialsStudyImages.thisRepN,trialsStudyImages.thisTrialN,trialsStudyImages.thisN,trialsStudyImages.thisIndex,trialsTest1_1.thisRepN,trialsTest1_1.thisTrialN,trialsTest1_1.thisN,trialsTest1_1.thisIndex,trialsTest1_2.thisRepN,trialsTest1_2.thisTrialN,trialsTest1_2.thisN,trialsTest1_2.thisIndex,trialsTest1_3.thisRepN,trialsTest1_3.thisTrialN,trialsTest1_3.thisN,trialsTest1_3.thisIndex,trials.thisRepN,trials.thisTrialN,trials.thisN,trials.thisIndex,key_resp.keys,key_resp.rt,key_resp.started,key_resp.stopped,WelcomeText.started,WelcomeText.stopped,text_2.started,text_2.stopped,key_resp_2.keys,key_resp_2.rt,key_resp_2.started,key_resp_2.stopped,ConsentText.started,ConsentText.stopped,key_resp_3.keys,key_resp_3.rt,key_resp_3.started,key_resp_3.stopped,InstructionText.started,InstructionText.stopped,key_resp_8.keys,key_resp_8.rt,key_resp_8.started,key_resp_8.stopped,text_7.started,text_7.stopped,text_4.started,text_4.stopped,key_resp_4.keys,key_resp_4.rt,key_resp_4.started,key_resp_4.stopped,image.started,image.stopped,key_resp_7.keys,key_resp_7.corr,key_resp_7.rt,key_resp_7.started,key_resp_7.stopped,text_6.started,text_6.stopped,key_resp_6.keys,key_resp_6.rt,key_resp_6.started,key_resp_6.stopped,image_2.started,image_2.stopped,key_resp_9.keys,key_resp_9.corr,key_resp_9.rt,key_resp_9.started,key_resp_9.stopped,text_5.started,text_5.stopped,key_resp_5.keys,key_resp_5.rt,key_resp_5.started,key_resp_5.stopped,key_resp_10.keys,key_resp_10.corr,key_resp_10.rt,key_resp_10.started,key_resp_10.stopped,image_3.started,image_3.stopped,key_resp_11.keys,key_resp_11.corr,key_resp_11.rt,key_resp_11.started,key_resp_11.stopped,image_4.started,image_4.stopped,key_resp_12.keys,key_resp_12.corr,key_resp_12.rt,key_resp_12.started,key_resp_12.stopped,image_5.started,image_5.stopped,participant,session,date,expName,psychopyVersion,frameRate,
,,,,,,,,,,,,,,,,,,,,,,,,space,1.390877207973972,6.582455666968599,None,,,,,,,,,,,,,,,,,,,,,,,,,,,,,,,,,,,,,,,,,,,,,,,,,,,,,,,,,,,,,,,,,,,,,,,,,,,,,001,2022_Jun_03_1501,psychopy,2021.2.3,None,
,,,,,,,,,,,,,,,,,,,,,,,,,,,,6.582455666968599,None,7.986562207923271,None,space,1.7639645419549197,8.482267791987397,None,,,,,,,,,,,,,,,,,,,,,,,,,,,,,,,,,,,,,,,,,,,,,,,,,,,,,,,,,,,,,,,,,,,,,001,2022_Jun_03_1501,psychopy,2021.2.3,None,
,,,,,,,,,,,,,,,,,,,,,,,,,,,,,,10.259086166974157,None,,,,,8.482267791987397,None,space,0.6345235420158133,10.756809957907535,None,,,,,,,,,,,,,,,,,,,,,,,,,,,,,,,,,,,,,,,,,,,,,,,,,,,,,,,,,,,,,,,001,2022_Jun_03_1501,psychopy,2021.2.3,None,
,,,,,,,,,,,,,,,,,,,,,,,,,,,,,,,,,,,,,,,,,,10.756809957907535,None,space,0.678492333041504,11.411968666943721,None,,,,,,,,,,,,,,,,,,,,,,,,,,,,,,,,,,,,,,,,,,,,,,,,,,,,,,,,,001,2022_Jun_03_1501,psychopy,2021.2.3,None,
,,,,,,,,,,,,,,,,,,,,,,,,,,,,,,12.109269124921411,None,,,,,,,,,,,,,,,,,11.411968666943721,None,12.611623749951832,None,space,0.5852244170382619,12.611623749951832,None,,,,,,,,,,,,,,,,,,,,,,,,,,,,,,,,,,,,,,,,,,,,,,,,,001,2022_Jun_03_1501,psychopy,2021.2.3,None,
Images/Goat 1.jpg,1,,,0,0,0,0,,,,,,,,,,,,,,,,,,,,,,,15.020036916946992,None,,,,,,,,,,,,,,,,,,,,,,,,,13.241052208002657,None,1,1,1.7673407079419121,13.241052208002657,None,,,,,,,,,,,,,,,,,,,,,,,,,,,,,,,,,,,,,,,,,,001,2022_Jun_03_1501,psychopy,2021.2.3,None,
,,,,,,,,,,,,,,,,,,,,,,,,,,,,,,,,,,,,,,,,,,,,,,,,,,,,,,,,,,,,,,,15.51326195790898,None,space,0.608347125002183,15.51326195790898,None,,,,,,,,,,,,,,,,,,,,,,,,,,,,,,,,,,,,001,2022_Jun_03_1501,psychopy,2021.2.3,None,
Images/Fire 7.jpg,2,1.7007,0.6719101083569338,,,,,0,0,0,0,,,,,,,,,,,,,,,,,,,17.22044116689358,None,,,,,,,,,,,,,,,,,,,,,,,,,,,,,,,,,,,,,,16.183921916992404,None,2,1,1.0194171670591459,16.183921916992404,None,,,,,,,,,,,,,,,,,,,,,,,,,,,,,001,2022_Jun_03_1501,psychopy,2021.2.3,None,
,,,,,,,,,,,,,,,,,,,,,,,,,,,,,,,,,,,,,,,,,,,,,,,,,,,,,,,,,,,,,,,,,,,,,,,,,,,,17.71473458292894,None,space,0.8663898330414668,17.71473458292894,None,,,,,,,,,,,,,,,,,,,,,,,001,2022_Jun_03_1501,psychopy,2021.2.3,None,
Images/Fireworks 3.jpg,2,6.0651,0.6231357771831161,,,,,,,,,0,0,0,7,,,,,,,,,,,,,,,20.80004620796535,None,,,,,,,,,,,,,,,,,,,,,,,,,,,,,,,,,,,,,,,,,,,,,,,,,,,1,0,2.152073667035438,18.62451733299531,None,18.62451733299531,None,,,,,,,,,,,,,,,,001,2022_Jun_03_1501,psychopy,2021.2.3,None,
Images/Flowers 1.jpg,2,5.8142,0.4043503429350359,,,,,,,,,0,1,1,3,,,,,,,,,,,,,,,22.014488874934614,None,,,,,,,,,,,,,,,,,,,,,,,,,,,,,,,,,,,,,,,,,,,,,,,,,,,1,0,0.6883062910055742,21.312737624975853,None,21.312737624975853,None,,,,,,,,,,,,,,,,001,2022_Jun_03_1501,psychopy,2021.2.3,None,
Images/Miserable pose 5.jpg,1,2.9754,0.39236908431560524,,,,,,,,,0,2,2,19,,,,,,,,,,,,,,,23.025173207977787,None,,,,,,,,,,,,,,,,,,,,,,,,,,,,,,,,,,,,,,,,,,,,,,,,,,,1,1,0.49581854196731,22.5126658329973,None,22.5126658329973,None,,,,,,,,,,,,,,,,001,2022_Jun_03_1501,psychopy,2021.2.3,None,
Images/Dog 2.jpg,1,5.9348,0.12716869989062418,,,,,,,,,0,3,3,14,,,,,,,,,,,,,,,24.05429424997419,None,,,,,,,,,,,,,,,,,,,,,,,,,,,,,,,,,,,,,,,,,,,,,,,,,,,1,1,0.5192636670544744,23.526714582927525,None,23.526714582927525,None,,,,,,,,,,,,,,,,001,2022_Jun_03_1501,psychopy,2021.2.3,None,
Images/Gun 4.jpg,2,2.9016,0.7697741972871771,,,,,,,,,0,4,4,15,,,,,,,,,,,,,,,24.921611916972324,None,,,,,,,,,,,,,,,,,,,,,,,,,,,,,,,,,,,,,,,,,,,,,,,,,,,1,0,0.358760750037618,24.546979749924503,None,24.546979749924503,None,,,,,,,,,,,,,,,,001,2022_Jun_03_1501,psychopy,2021.2.3,None,
Images/Couple 8.jpg,1,5.7678,0.251731948819934,,,,,,,,,0,5,5,8,,,,,,,,,,,,,,,25.906826582970098,None,,,,,,,,,,,,,,,,,,,,,,,,,,,,,,,,,,,,,,,,,,,,,,,,,,,1,1,0.4675537080038339,25.419091249932535,None,25.419091249932535,None,,,,,,,,,,,,,,,,001,2022_Jun_03_1501,psychopy,2021.2.3,None,
Images/Bridge 1.jpg,2,5.9383,0.9690828349581032,,,,,,,,,0,6,6,10,,,,,,,,,,,,,,,26.82042820798233,None,,,,,,,,,,,,,,,,,,,,,,,,,,,,,,,,,,,,,,,,,,,,,,,,,,,1,0,0.3905531670898199,26.408362624933943,None,26.408362624933943,None,,,,,,,,,,,,,,,,001,2022_Jun_03_1501,psychopy,2021.2.3,None,
Images/Galaxy 2.jpg,2,5.7867,0.11173582871170518,,,,,,,,,0,7,7,11,,,,,,,,,,,,,,,27.716656041913666,None,,,,,,,,,,,,,,,,,,,,,,,,,,,,,,,,,,,,,,,,,,,,,,,,,,,1,0,0.3666302498895675,27.326278332970105,None,27.326278332970105,None,,,,,,,,,,,,,,,,001,2022_Jun_03_1501,psychopy,2021.2.3,None,
Images/Gun 6.jpg,2,2.9016,0.8898260865812544,,,,,,,,,0,8,8,2,,,,,,,,,,,,,,,28.502283124951646,None,,,,,,,,,,,,,,,,,,,,,,,,,,,,,,,,,,,,,,,,,,,,,,,,,,,1,0,0.26855533302295953,28.217230457928963,None,28.217230457928963,None,,,,,,,,,,,,,,,,001,2022_Jun_03_1501,psychopy,2021.2.3,None,
Images/Dead bodies 2.jpg,1,1.2275,0.24789711922878843,,,,,,,,,0,9,9,13,,,,,,,,,,,,,,,29.25128812494222,None,,,,,,,,,,,,,,,,,,,,,,,,,,,,,,,,,,,,,,,,,,,,,,,,,,,1,1,0.23078349989373237,29.01021962496452,None,29.01021962496452,None,,,,,,,,,,,,,,,,001,2022_Jun_03_1501,psychopy,2021.2.3,None,
Images/Lake 12.jpg,2,6.4088,0.8081144939639223,,,,,,,,,0,10,10,17,,,,,,,,,,,,,,,30.115728957927786,None,,,,,,,,,,,,,,,,,,,,,,,,,,,,,,,,,,,,,,,,,,,,,,,,,,,1,0,0.35603595909196883,29.74984066700563,None,29.74984066700563,None,,,,,,,,,,,,,,,,001,2022_Jun_03_1501,psychopy,2021.2.3,None,
Images/Lake 2.jpg,2,6.3635,0.9852323328940595,,,,,,,,,0,11,11,6,,,,,,,,,,,,,,,30.948847666964866,None,,,,,,,,,,,,,,,,,,,,,,,,,,,,,,,,,,,,,,,,,,,,,,,,,,,1,0,0.3098702080314979,30.62473587493878,None,30.62473587493878,None,,,,,,,,,,,,,,,,001,2022_Jun_03_1501,psychopy,2021.2.3,None,
Images/Car Accident 3.jpg,2,2.7945,0.4099838468273278,,,,,,,,,0,12,12,18,,,,,,,,,,,,,,,31.75226479198318,None,,,,,,,,,,,,,,,,,,,,,,,,,,,,,,,,,,,,,,,,,,,,,,,,,,,1,0,0.2903175000101328,31.447104166960344,None,31.447104166960344,None,,,,,,,,,,,,,,,,001,2022_Jun_03_1501,psychopy,2021.2.3,None,
Images/Flowers 6.jpg,2,5.9556,0.9522082233542238,,,,,,,,,0,13,13,1,,,,,,,,,,,,,,,32.62947733292822,None,,,,,,,,,,,,,,,,,,,,,,,,,,,,,,,,,,,,,,,,,,,,,,,,,,,1,0,0.36156975000631064,32.25521016691346,None,32.25521016691346,None,,,,,,,,,,,,,,,,001,2022_Jun_03_1501,psychopy,2021.2.3,None,
Images/Flowers 9.jpg,2,5.9383,0.79021863287162,,,,,,,,,0,14,14,16,,,,,,,,,,,,,,,33.54070004192181,None,,,,,,,,,,,,,,,,,,,,,,,,,,,,,,,,,,,,,,,,,,,,,,,,,,,1,0,0.3866929580690339,33.1297017079778,None,33.1297017079778,None,,,,,,,,,,,,,,,,001,2022_Jun_03_1501,psychopy,2021.2.3,None,
Images/Lake 10.jpg,2,6.125,0.2984734891266426,,,,,,,,,0,15,15,4,,,,,,,,,,,,,,,34.45656133291777,None,,,,,,,,,,,,,,,,,,,,,,,,,,,,,,,,,,,,,,,,,,,,,,,,,,,1,0,0.4081414579413831,34.04137858294416,None,34.04137858294416,None,,,,,,,,,,,,,,,,001,2022_Jun_03_1501,psychopy,2021.2.3,None,
Images/Frustrated pose 2.jpg,1,2.6481,0.04964889787021731,,,,,,,,,0,16,16,9,,,,,,,,,,,,,,,35.36590074992273,None,,,,,,,,,,,,,,,,,,,,,,,,,,,,,,,,,,,,,,,,,,,,,,,,,,,1,1,0.3972564160358161,34.95398074993864,None,34.95398074993864,None,,,,,,,,,,,,,,,,001,2022_Jun_03_1501,psychopy,2021.2.3,None,
Images/Elephant 1.jpg,1,5.8272,0.04936767057029101,,,,,,,,,0,17,17,0,,,,,,,,,,,,,,,36.25014499993995,None,,,,,,,,,,,,,,,,,,,,,,,,,,,,,,,,,,,,,,,,,,,,,,,,,,,1,1,0.3613579999655485,35.870760624995455,None,35.870760624995455,None,,,,,,,,,,,,,,,,001,2022_Jun_03_1501,psychopy,2021.2.3,None,
Images/Garbage dump 3.jpg,2,2.0219,0.24903094943803883,,,,,,,,,0,18,18,12,,,,,,,,,,,,,,,37.06318212498445,None,,,,,,,,,,,,,,,,,,,,,,,,,,,,,,,,,,,,,,,,,,,,,,,,,,,1,0,0.2980798340868205,36.753271249937825,None,36.753271249937825,None,,,,,,,,,,,,,,,,001,2022_Jun_03_1501,psychopy,2021.2.3,None,
Images/Hangover 1.jpg,1,2.3921,0.26033231155499936,,,,,,,,,0,19,19,5,,,,,,,,,,,,,,,37.8636808329029,None,,,,,,,,,,,,,,,,,,,,,,,,,,,,,,,,,,,,,,,,,,,,,,,,,,,1,1,0.274642665986903,37.570174749940634,None,37.570174749940634,None,,,,,,,,,,,,,,,,001,2022_Jun_03_1501,psychopy,2021.2.3,None,
,,,,,,,,,,,,,,,,,,,,,,,,,,,,,,,,,,,,,,,,,,,,,,,,,,,,,,,,,,,,,,,,,,,,,,,,,,,,38.36083349992987,None,space,1.4389764169463888,38.36083349992987,None,,,,,,,,,,,,,,,,,,,,,,,001,2022_Jun_03_1501,psychopy,2021.2.3,None,
Images/Sad pose 4.jpg,1,2.8282,0.40245968533442955,,,,,,,,,,,,,0,0,0,6,,,,,,,,,,,41.31900395790581,None,,,,,,,,,,,,,,,,,,,,,,,,,,,,,,,,,,,,,,,,,,,,,,,,,,,,,,,,,,2,0,1.4623889999929816,39.84395145799499,None,39.84395145799499,None,,,,,,,,,001,2022_Jun_03_1501,psychopy,2021.2.3,None,
Images/Excited face 2.jpg,1,5.8009,0.8260034227404583,,,,,,,,,,,,,0,1,1,14,,,,,,,,,,,42.067971499986015,None,,,,,,,,,,,,,,,,,,,,,,,,,,,,,,,,,,,,,,,,,,,,,,,,,,,,,,,,,,2,0,0.2389719580532983,41.818194791907445,None,41.818194791907445,None,,,,,,,,,001,2022_Jun_03_1501,psychopy,2021.2.3,None,
Images/Sleepy pose 1.jpg,1,2.603,0.943587941998371,,,,,,,,,,,,,0,2,2,0,,,,,,,,,,,42.77528366690967,None,,,,,,,,,,,,,,,,,,,,,,,,,,,,,,,,,,,,,,,,,,,,,,,,,,,,,,,,,,2,0,0.1876348330406472,42.57771437498741,None,42.57771437498741,None,,,,,,,,,001,2022_Jun_03_1501,psychopy,2021.2.3,None,
Images/Wedding 6.jpg,1,6.0481,0.533854831214882,,,,,,,,,,,,,0,3,3,11,,,,,,,,,,,43.511075541959144,None,,,,,,,,,,,,,,,,,,,,,,,,,,,,,,,,,,,,,,,,,,,,,,,,,,,,,,,,,,2,0,0.22506399999838322,43.27435208298266,None,43.27435208298266,None,,,,,,,,,001,2022_Jun_03_1501,psychopy,2021.2.3,None,
Images/Tornado 1.jpg,2,2.1274,0.8898286049774505,,,,,,,,,,,,,0,4,4,16,,,,,,,,,,,44.25379654194694,None,,,,,,,,,,,,,,,,,,,,,,,,,,,,,,,,,,,,,,,,,,,,,,,,,,,,,,,,,,2,1,0.22126875002868474,44.022760166903026,None,44.022760166903026,None,,,,,,,,,001,2022_Jun_03_1501,psychopy,2021.2.3,None,
Images/Flowers 1.jpg,2,5.8142,0.854176312029122,,,,,,,,,,,,,0,5,5,5,,,,,,,,,,,44.98216487490572,None,,,,,,,,,,,,,,,,,,,,,,,,,,,,,,,,,,,,,,,,,,,,,,,,,,,,,,,,,,2,1,0.21743170905392617,44.751503707957454,None,44.751503707957454,None,,,,,,,,,001,2022_Jun_03_1501,psychopy,2021.2.3,None,
Images/Dog 18.jpg,1,6.1614,0.8732426862078547,,,,,,,,,,,,,0,6,6,15,,,,,,,,,,,45.69602208293509,None,,,,,,,,,,,,,,,,,,,,,,,,,,,,,,,,,,,,,,,,,,,,,,,,,,,,,,,,,,2,0,0.20144770911429077,45.48045349994209,None,45.48045349994209,None,,,,,,,,,001,2022_Jun_03_1501,psychopy,2021.2.3,None,
Images/Fireworks 2.jpg,2,6.277,0.7624740227305116,,,,,,,,,,,,,0,7,7,1,,,,,,,,,,,46.41159370797686,None,,,,,,,,,,,,,,,,,,,,,,,,,,,,,,,,,,,,,,,,,,,,,,,,,,,,,,,,,,2,1,0.19786958396434784,46.20123704196885,None,46.20123704196885,None,,,,,,,,,001,2022_Jun_03_1501,psychopy,2021.2.3,None,
Images/Cat 4.jpg,1,5.798,0.38306284120414025,,,,,,,,,,,,,0,8,8,18,,,,,,,,,,,47.152301249909215,None,,,,,,,,,,,,,,,,,,,,,,,,,,,,,,,,,,,,,,,,,,,,,,,,,,,,,,,,,,2,0,0.23034183296840638,46.913148124935105,None,46.913148124935105,None,,,,,,,,,001,2022_Jun_03_1501,psychopy,2021.2.3,None,
Images/Baby 5.jpg,1,6.1553,0.5652809593512679,,,,,,,,,,,,,0,9,9,9,,,,,,,,,,,47.8853310829727,None,,,,,,,,,,,,,,,,,,,,,,,,,,,,,,,,,,,,,,,,,,,,,,,,,,,,,,,,,,2,0,0.21964670799206942,47.649800707935356,None,47.649800707935356,None,,,,,,,,,001,2022_Jun_03_1501,psychopy,2021.2.3,None,
Images/Snake 4.jpg,1,2.4159,0.32476122568777466,,,,,,,,,,,,,0,10,10,8,,,,,,,,,,,48.69321766693611,None,,,,,,,,,,,,,,,,,,,,,,,,,,,,,,,,,,,,,,,,,,,,,,,,,,,,,,,,,,2,0,0.2921958330553025,48.385771916946396,None,48.385771916946396,None,,,,,,,,,001,2022_Jun_03_1501,psychopy,2021.2.3,None,
Images/Cold 8.jpg,2,5.5742,0.1876411890461065,,,,,,,,,,,,,0,11,11,10,,,,,,,,,,,49.37724395794794,None,,,,,,,,,,,,,,,,,,,,,,,,,,,,,,,,,,,,,,,,,,,,,,,,,,,,,,,,,,2,1,0.167234625085257,49.2009019999532,None,49.2009019999532,None,,,,,,,,,001,2022_Jun_03_1501,psychopy,2021.2.3,None,
Images/Mother 1.jpg,1,6.0784,0.07013481274686417,,,,,,,,,,,,,0,12,12,4,,,,,,,,,,,49.98674683296122,None,,,,,,,,,,,,,,,,,,,,,,,,,,,,,,,,,,,,,,,,,,,,,,,,,,,,,,,,,,2,0,0.10537279199343175,49.87433733290527,None,49.87433733290527,None,,,,,,,,,001,2022_Jun_03_1501,psychopy,2021.2.3,None,
Images/Beach 2.jpg,2,6.2944,0.12313070150438588,,,,,,,,,,,,,0,13,13,19,,,,,,,,,,,50.99796016700566,None,,,,,,,,,,,,,,,,,,,,,,,,,,,,,,,,,,,,,,,,,,,,,,,,,,,,,,,,,,2,1,0.4911344170104712,50.49010366690345,None,50.49010366690345,None,,,,,,,,,001,2022_Jun_03_1501,psychopy,2021.2.3,None,
Images/Lake 3.jpg,2,5.9732,0.8210013894467229,,,,,,,,,,,,,0,14,14,2,,,,,,,,,,,51.567145124892704,None,,,,,,,,,,,,,,,,,,,,,,,,,,,,,,,,,,,,,,,,,,,,,,,,,,,,,,,,,,2,1,0.04683245799969882,51.498644916922785,None,51.498644916922785,None,,,,,,,,,001,2022_Jun_03_1501,psychopy,2021.2.3,None,
Images/Miserable pose 4.jpg,1,2.5702,0.057736864775737584,,,,,,,,,,,,,0,15,15,12,,,,,,,,,,,52.130709374905564,None,,,,,,,,,,,,,,,,,,,,,,,,,,,,,,,,,,,,,,,,,,,,,,,,,,,,,,,,,,2,0,0.04766245908103883,52.06617645791266,None,52.06617645791266,None,,,,,,,,,001,2022_Jun_03_1501,psychopy,2021.2.3,None,
Images/Angry face 3.jpg,1,2.5188,0.48977527867005466,,,,,,,,,,,,,0,16,16,7,,,,,,,,,,,52.67543087492231,None,,,,,,,,,,,,,,,,,,,,,,,,,,,,,,,,,,,,,,,,,,,,,,,,,,,,,,,,,,2,0,0.02217191702220589,52.6426044999389,None,52.6426044999389,None,,,,,,,,,001,2022_Jun_03_1501,psychopy,2021.2.3,None,
Images/Dancing 7.jpg,1,5.8813,0.8764115484617019,,,,,,,,,,,,,0,17,17,13,,,,,,,,,,,53.257991041988134,None,,,,,,,,,,,,,,,,,,,,,,,,,,,,,,,,,,,,,,,,,,,,,,,,,,,,,,,,,,2,0,0.06409241701476276,53.18345170794055,None,53.18345170794055,None,,,,,,,,,001,2022_Jun_03_1501,psychopy,2021.2.3,None,
Images/Wedding 2.jpg,1,5.7601,0.8807101041649952,,,,,,,,,,,,,0,18,18,17,,,,,,,,,,,54.050759791978635,None,,,,,,,,,,,,,,,,,,,,,,,,,,,,,,,,,,,,,,,,,,,,,,,,,,,,,,,,,,2,0,0.27779395901598036,53.75832541694399,None,53.75832541694399,None,,,,,,,,,001,2022_Jun_03_1501,psychopy,2021.2.3,None,
Images/Bloody knife 1.jpg,2,1.8704,0.2946696303452925,,,,,,,,,,,,,0,19,19,3,,,,,,,,,,,55.718734583002515,None,,,,,,,,,,,,,,,,,,,,,,,,,,,,,,,,,,,,,,,,,,,,,,,,,,,,,,,,,,2,1,1.1499306249897927,54.55177091690712,None,54.55177091690712,None,,,,,,,,,001,2022_Jun_03_1501,psychopy,2021.2.3,None,
,,,,,,,,,,,,,,,,,,,,,,,,,,,,,,,,,,,,,,,,,,,,,,,,,,,,,,,,,,,,,,,,,,,,,,,,,,,,56.21372083295137,None,space,0.7236701659858227,56.21372083295137,None,,,,,,,,,,,,,,,,,,,,,,,001,2022_Jun_03_1501,psychopy,2021.2.3,None,
Images/Wedding 4.jpg,2,5.8256,0.46936970299611136,,,,,,,,,,,,,,,,,0,0,0,19,,,,,,,58.36500033293851,None,,,,,,,,,,,,,,,,,,,,,,,,,,,,,,,,,,,,,,,,,,,,,,,,,,,,,,,,,,,,,,,,,2,1,1.382385874981992,56.97232258296572,None,56.97232258296572,None,,001,2022_Jun_03_1501,psychopy,2021.2.3,None,
Images/Weapon 1.jpg,2,2.8209,0.9553793807083274,,,,,,,,,,,,,,,,,0,1,1,16,,,,,,,59.103994124918245,None,,,,,,,,,,,,,,,,,,,,,,,,,,,,,,,,,,,,,,,,,,,,,,,,,,,,,,,,,,,,,,,,,2,1,0.2201437499606982,58.87007179192733,None,58.87007179192733,None,,001,2022_Jun_03_1501,psychopy,2021.2.3,None,
Images/Rainbow 1.jpg,2,6.2286,0.004794842477892414,,,,,,,,,,,,,,,,,0,2,2,8,,,,,,,59.85378458292689,None,,,,,,,,,,,,,,,,,,,,,,,,,,,,,,,,,,,,,,,,,,,,,,,,,,,,,,,,,,,,,,,,,2,1,0.23309524997603148,59.60720012499951,None,59.60720012499951,None,,001,2022_Jun_03_1501,psychopy,2021.2.3,None,
Images/Flowers 7.jpg,2,5.7452,0.20130919893546873,,,,,,,,,,,,,,,,,0,3,3,14,,,,,,,60.573352124891244,None,,,,,,,,,,,,,,,,,,,,,,,,,,,,,,,,,,,,,,,,,,,,,,,,,,,,,,,,,,,,,,,,,2,1,0.2148215000052005,60.351921124965884,None,60.351921124965884,None,,001,2022_Jun_03_1501,psychopy,2021.2.3,None,
Images/Gun 10.jpg,2,2.5934,0.45300295686118053,,,,,,,,,,,,,,,,,0,4,4,6,,,,,,,61.31286345794797,None,,,,,,,,,,,,,,,,,,,,,,,,,,,,,,,,,,,,,,,,,,,,,,,,,,,,,,,,,,,,,,,,,2,1,0.22539029095787555,61.07550433289725,None,61.07550433289725,None,,001,2022_Jun_03_1501,psychopy,2021.2.3,None,
Images/Destruction 10.jpg,2,2.0682,0.46026722025944866,,,,,,,,,,,,,,,,,0,5,5,9,,,,,,,62.06542608293239,None,,,,,,,,,,,,,,,,,,,,,,,,,,,,,,,,,,,,,,,,,,,,,,,,,,,,,,,,,,,,,,,,,2,1,0.23908808291889727,61.81484620796982,None,61.81484620796982,None,,001,2022_Jun_03_1501,psychopy,2021.2.3,None,
Images/Bird 1.jpg,1,5.9051,0.45693834414331513,,,,,,,,,,,,,,,,,0,6,6,15,,,,,,,62.81572487496305,None,,,,,,,,,,,,,,,,,,,,,,,,,,,,,,,,,,,,,,,,,,,,,,,,,,,,,,,,,,,,,,,,,2,0,0.24490875005722046,62.56217649998143,None,62.56217649998143,None,,001,2022_Jun_03_1501,psychopy,2021.2.3,None,
Images/Dog 19.jpg,1,5.9814,0.7413275084961816,,,,,,,,,,,,,,,,,0,7,7,11,,,,,,,63.662297041970305,None,,,,,,,,,,,,,,,,,,,,,,,,,,,,,,,,,,,,,,,,,,,,,,,,,,,,,,,,,,,,,,,,,2,0,0.33426395803689957,63.314877333003096,None,63.314877333003096,None,,001,2022_Jun_03_1501,psychopy,2021.2.3,None,
Images/Jail 5.jpg,2,3.0599,0.5416990831243563,,,,,,,,,,,,,,,,,0,8,8,7,,,,,,,64.40400683297776,None,,,,,,,,,,,,,,,,,,,,,,,,,,,,,,,,,,,,,,,,,,,,,,,,,,,,,,,,,,,,,,,,,2,1,0.2169387920293957,64.16734783293214,None,64.16734783293214,None,,001,2022_Jun_03_1501,psychopy,2021.2.3,None,
Images/Destruction 5.jpg,2,2.1143,0.9714971767863325,,,,,,,,,,,,,,,,,0,9,9,1,,,,,,,65.15764216694515,None,,,,,,,,,,,,,,,,,,,,,,,,,,,,,,,,,,,,,,,,,,,,,,,,,,,,,,,,,,,,,,,,,2,1,0.2291384160052985,64.9050545420032,None,64.9050545420032,None,,001,2022_Jun_03_1501,psychopy,2021.2.3,None,
Images/Cat 5.jpg,1,6.1842,0.21190688989104334,,,,,,,,,,,,,,,,,0,10,10,4,,,,,,,65.88673991698306,None,,,,,,,,,,,,,,,,,,,,,,,,,,,,,,,,,,,,,,,,,,,,,,,,,,,,,,,,,,,,,,,,,2,0,0.20774683298077434,65.66309574991465,None,65.66309574991465,None,,001,2022_Jun_03_1501,psychopy,2021.2.3,None,
Images/Frustrated pose 5.jpg,1,2.481,0.4877464117223763,,,,,,,,,,,,,,,,,0,11,11,10,,,,,,,66.66612641699612,None,,,,,,,,,,,,,,,,,,,,,,,,,,,,,,,,,,,,,,,,,,,,,,,,,,,,,,,,,,,,,,,,,2,0,0.2672172080492601,66.38534837495536,None,66.38534837495536,None,,001,2022_Jun_03_1501,psychopy,2021.2.3,None,
Images/Galaxy 4.jpg,2,5.4342,0.004772050602932287,,,,,,,,,,,,,,,,,0,12,12,18,,,,,,,67.41467345796991,None,,,,,,,,,,,,,,,,,,,,,,,,,,,,,,,,,,,,,,,,,,,,,,,,,,,,,,,,,,,,,,,,,2,1,0.24225100001785904,67.16563095792662,None,67.16563095792662,None,,001,2022_Jun_03_1501,psychopy,2021.2.3,None,
Images/Scared face 3.jpg,1,3.0377,0.020543888563642865,,,,,,,,,,,,,,,,,0,13,13,5,,,,,,,68.19035066699143,None,,,,,,,,,,,,,,,,,,,,,,,,,,,,,,,,,,,,,,,,,,,,,,,,,,,,,,,,,,,,,,,,,2,0,0.26226087496615946,67.9165409168927,None,67.9165409168927,None,,001,2022_Jun_03_1501,psychopy,2021.2.3,None,
Images/Dirt 1.jpg,2,1.6168,0.7915235630823373,,,,,,,,,,,,,,,,,0,14,14,0,,,,,,,68.94645854190458,None,,,,,,,,,,,,,,,,,,,,,,,,,,,,,,,,,,,,,,,,,,,,,,,,,,,,,,,,,,,,,,,,,2,1,0.24025087500922382,68.69181533297524,None,68.69181533297524,None,,001,2022_Jun_03_1501,psychopy,2021.2.3,None,
Images/Frustrated pose 1.jpg,1,2.3937,0.6202580475217457,,,,,,,,,,,,,,,,,0,15,15,3,,,,,,,69.67846904194448,None,,,,,,,,,,,,,,,,,,,,,,,,,,,,,,,,,,,,,,,,,,,,,,,,,,,,,,,,,,,,,,,,,2,0,0.2107390830060467,69.44751412491314,None,69.44751412491314,None,,001,2022_Jun_03_1501,psychopy,2021.2.3,None,
Images/Tornado 4.jpg,2,2.7192,0.1922600838963734,,,,,,,,,,,,,,,,,0,16,16,2,,,,,,,70.41193720791489,None,,,,,,,,,,,,,,,,,,,,,,,,,,,,,,,,,,,,,,,,,,,,,,,,,,,,,,,,,,,,,,,,,2,1,0.22028804197907448,70.17892079195008,None,70.17892079195008,None,,001,2022_Jun_03_1501,psychopy,2021.2.3,None,
Images/Injury 4.jpg,1,1.4052,0.5319739147710393,,,,,,,,,,,,,,,,,0,17,17,12,,,,,,,71.14437054190785,None,,,,,,,,,,,,,,,,,,,,,,,,,,,,,,,,,,,,,,,,,,,,,,,,,,,,,,,,,,,,,,,,,2,0,0.20312641700729728,70.9200486249756,None,70.9200486249756,None,,001,2022_Jun_03_1501,psychopy,2021.2.3,None,
Images/Injury 1.jpg,1,1.9865,0.774696574756887,,,,,,,,,,,,,,,,,0,18,18,13,,,,,,,71.88689199998043,None,,,,,,,,,,,,,,,,,,,,,,,,,,,,,,,,,,,,,,,,,,,,,,,,,,,,,,,,,,,,,,,,,2,0,0.2291720419889316,71.64228854200337,None,71.64228854200337,None,,001,2022_Jun_03_1501,psychopy,2021.2.3,None,
Images/Nature 1.jpg,2,6.1726,0.8701827595432409,,,,,,,,,,,,,,,,,0,19,19,17,,,,,,,72.60324541700538,None,,,,,,,,,,,,,,,,,,,,,,,,,,,,,,,,,,,,,,,,,,,,,,,,,,,,,,,,,,,,,,,,,2,1,0.1999622080475092,72.38879854197148,None,72.38879854197148,None,,001,2022_Jun_03_1501,psychopy,2021.2.3,None,
