nRepsTask1,nRepsTask2,ImageFile,AnimateInanimate,ValenceScore,Rand,controlTaskOrder.thisRepN,controlTaskOrder.thisTrialN,controlTaskOrder.thisN,controlTaskOrder.thisIndex,part1.thisRepN,part1.thisTrialN,part1.thisN,part1.thisIndex,part2.thisRepN,part2.thisTrialN,part2.thisN,part2.thisIndex,trialsStudyImages2.thisRepN,trialsStudyImages2.thisTrialN,trialsStudyImages2.thisN,trialsStudyImages2.thisIndex,trialsReversed.thisRepN,trialsReversed.thisTrialN,trialsReversed.thisN,trialsReversed.thisIndex,trialsStudyImages.thisRepN,trialsStudyImages.thisTrialN,trialsStudyImages.thisN,trialsStudyImages.thisIndex,trialsOriginal.thisRepN,trialsOriginal.thisTrialN,trialsOriginal.thisN,trialsOriginal.thisIndex,key_resp.started,WelcomeText.started,key_resp.keys,key_resp.rt,text_2.started,text_2.stopped,key_resp_2.started,ConsentText.started,key_resp_2.keys,key_resp_2.rt,key_resp_3.started,InstructionText.started,key_resp_3.keys,key_resp_3.rt,key_resp_8.started,text_7.started,key_resp_8.keys,key_resp_8.rt,text_8.started,key_resp_13.started,key_resp_13.keys,key_resp_13.rt,key_resp_14.started,image_7.started,key_resp_14.keys,key_resp_14.rt,text_9.started,key_resp_15.started,key_resp_15.keys,key_resp_15.rt,key_resp_16.started,image_6.started,key_resp_16.keys,key_resp_16.corr,key_resp_16.rt,text_4.started,key_resp_4.started,key_resp_4.keys,key_resp_4.rt,image.started,key_resp_7.started,joystick.started,key_resp_7.keys,key_resp_7.corr,key_resp_7.rt,joystick.x,joystick.y,joystick.button_0,joystick.button_1,joystick.button_2,joystick.button_3,joystick.button_4,joystick.button_5,joystick.button_6,joystick.button_7,joystick.button_8,joystick.button_9,joystick.button_10,joystick.time,text_6.started,key_resp_6.started,key_resp_6.keys,key_resp_6.rt,image_2.started,key_resp_9.started,button_resp.started,key_resp_9.keys,key_resp_9.corr,key_resp_9.rt,button_resp.keys,image_2.stopped,key_resp_9.stopped,button_resp.stopped,key_resp_20.started,text_3.started,key_resp_20.keys,key_resp_20.rt,participant,session,group,date,expName,psychopyVersion,frameRate,
,,,,,,,,,,,,,,,,,,,,,,,,,,,,,,,,,,10.45279519999167,10.45279519999167,space,228.75517099999706,,,,,,,,,,,,,,,,,,,,,,,,,,,,,,,,,,,,,,,,,,,,,,,,,,,,,,,,,,,,,,,,,,,,,,,,,,,001,A,2022-10-21_18h57.52.159,psychopy,2022.2.4,59.56128349262603,
,,,,,,,,,,,,,,,,,,,,,,,,,,,,,,,,,,,,,,239.2301931999973,239.7301582999935,239.7301582999935,239.7301582999935,space,0.4854703000164591,,,,,,,,,,,,,,,,,,,,,,,,,,,,,,,,,,,,,,,,,,,,,,,,,,,,,,,,,,,,,,,,,,,,,001,A,2022-10-21_18h57.52.159,psychopy,2022.2.4,59.56128349262603,
,,,,,,,,,,,,,,,,,,,,,,,,,,,,,,,,,,,,,,240.24653109998326,240.74703379999846,,,,,240.74703379999846,240.74703379999846,space,0.340586499980418,,,,,,,,,,,,,,,,,,,,,,,,,,,,,,,,,,,,,,,,,,,,,,,,,,,,,,,,,,,,,,,,,001,A,2022-10-21_18h57.52.159,psychopy,2022.2.4,59.56128349262603,
,,,,,,,,,,,,,,,,,,,,,,,,,,,,,,,,,,,,,,241.11357210000278,241.6131958999904,,,,,,,,,241.6131958999904,241.6131958999904,space,0.4341476999979932,,,,,,,,,,,,,,,,,,,,,,,,,,,,,,,,,,,,,,,,,,,,,,,,,,,,,,,,,,,,,001,A,2022-10-21_18h57.52.159,psychopy,2022.2.4,59.56128349262603,
0,1,Images/Rocks 3.jpg,1,,,0,0,0,1,,,,,0,0,0,0,0,0,0,9,,,,,,,,,,,,,,,,,244.04792019998422,242.56995360000292,,,,,,,,,,,,,242.56995360000292,242.56995360000292,space,0.4385302999871783,243.06005869997898,243.06005869997898,None,,,,,,,,,,,,,,,,,,,,,,,,,,,,,,,,,,,,,,,,,,,,,,,,,,,,,,001,A,2022-10-21_18h57.52.159,psychopy,2022.2.4,59.56128349262603,
0,1,Images/Pigeon 4.jpg,2,,,0,0,0,1,,,,,0,0,0,0,0,1,1,4,,,,,,,,,,,,,,,,,245.3804281000048,245.8800071000005,,,,,,,,,,,,,,,,,244.54736199998297,244.54736199998297,1,0.8124642000184394,,,,,,,,,,,,,,,,,,,,,,,,,,,,,,,,,,,,,,,,,,,,,,,,,,,,,001,A,2022-10-21_18h57.52.159,psychopy,2022.2.4,59.56128349262603,
0,1,Images/Storage 3.jpg,1,,,0,0,0,1,,,,,0,0,0,0,0,2,2,7,,,,,,,,,,,,,,,,,246.18042910000077,246.6815311999817,,,,,,,,,,,,,,,,,245.8800071000005,245.8800071000005,2,0.27940500000840984,,,,,,,,,,,,,,,,,,,,,,,,,,,,,,,,,,,,,,,,,,,,,,,,,,,,,001,A,2022-10-21_18h57.52.159,psychopy,2022.2.4,59.56128349262603,
0,1,Images/Surprise 2.jpg,2,,,0,0,0,1,,,,,0,0,0,0,0,3,3,0,,,,,,,,,,,,,,,,,246.91357539998717,247.41381739999633,,,,,,,,,,,,,,,,,246.6815311999817,246.6815311999817,1,0.20648439999786206,,,,,,,,,,,,,,,,,,,,,,,,,,,,,,,,,,,,,,,,,,,,,,,,,,,,,001,A,2022-10-21_18h57.52.159,psychopy,2022.2.4,59.56128349262603,
0,1,Images/Socks 1.jpg,1,,,0,0,0,1,,,,,0,0,0,0,0,4,4,8,,,,,,,,,,,,,,,,,247.56371759998729,248.0659483000054,,,,,,,,,,,,,,,,,247.41381739999633,247.41381739999633,1,0.12976959999650717,,,,,,,,,,,,,,,,,,,,,,,,,,,,,,,,,,,,,,,,,,,,,,,,,,,,,001,A,2022-10-21_18h57.52.159,psychopy,2022.2.4,59.56128349262603,
0,1,Images/Tiger 2.jpg,2,,,0,0,0,1,,,,,0,0,0,0,0,5,5,1,,,,,,,,,,,,,,,,,248.1636337999953,248.66382259997772,,,,,,,,,,,,,,,,,248.0659483000054,248.0659483000054,1,0.0780654999834951,,,,,,,,,,,,,,,,,,,,,,,,,,,,,,,,,,,,,,,,,,,,,,,,,,,,,001,A,2022-10-21_18h57.52.159,psychopy,2022.2.4,59.56128349262603,
0,1,Images/Shark 7.jpg,2,,,0,0,0,1,,,,,0,0,0,0,0,6,6,2,,,,,,,,,,,,,,,,,248.78028360000462,249.2826434999879,,,,,,,,,,,,,,,,,248.66382259997772,248.66382259997772,1,0.08878169997478835,,,,,,,,,,,,,,,,,,,,,,,,,,,,,,,,,,,,,,,,,,,,,,,,,,,,,001,A,2022-10-21_18h57.52.159,psychopy,2022.2.4,59.56128349262603,
0,1,Images/Sad face 1.jpg,2,,,0,0,0,1,,,,,0,0,0,0,0,7,7,3,,,,,,,,,,,,,,,,,249.3973797999788,249.89666559998295,,,,,,,,,,,,,,,,,249.2826434999879,249.2826434999879,1,0.0934953999822028,,,,,,,,,,,,,,,,,,,,,,,,,,,,,,,,,,,,,,,,,,,,,,,,,,,,,001,A,2022-10-21_18h57.52.159,psychopy,2022.2.4,59.56128349262603,
0,1,Images/Yarn 4.jpg,1,,,0,0,0,1,,,,,0,0,0,0,0,8,8,5,,,,,,,,,,,,,,,,,250.18003799999133,250.67994979998912,,,,,,,,,,,,,,,,,249.89666559998295,249.89666559998295,1,0.26370810001390055,,,,,,,,,,,,,,,,,,,,,,,,,,,,,,,,,,,,,,,,,,,,,,,,,,,,,001,A,2022-10-21_18h57.52.159,psychopy,2022.2.4,59.56128349262603,
0,1,Images/Wedding 7.jpg,1,,,0,0,0,1,,,,,0,0,0,0,0,9,9,6,,,,,,,,,,,,,,,,,250.8466647999885,251.34699359998922,,,,,,,,,,,,,,,,,250.67994979998912,250.67994979998912,1,0.13465019999421202,,,,,,,,,,,,,,,,,,,,,,,,,,,,,,,,,,,,,,,,,,,,,,,,,,,,,001,A,2022-10-21_18h57.52.159,psychopy,2022.2.4,59.56128349262603,
0,1,Images/Fireworks 2.jpg,1,6.277,0.9457837433756032,0,0,0,1,,,,,0,0,0,0,,,,,0,0,0,21,,,,,,,,,,,,,253.7305895999889,,,,,,,,,,,,,,,,,,,,,,251.34699359998922,251.34699359998922,space,1.341153299988946,252.72994779999135,252.72994779999135,None,0,,,,,,,,,,,,,,,,,,,,,,,,,,,,,,,,,,,,,,,,,,,,,001,A,2022-10-21_18h57.52.159,psychopy,2022.2.4,59.56128349262603,
0,1,Images/Nature 1.jpg,1,6.1726,0.8657415608777785,0,0,0,1,,,,,0,0,0,0,,,,,0,1,1,17,,,,,,,,,,,,,254.76391859998694,255.26675059998524,,,,,,,,,,,,,,,,,,,,,,,,,254.23462410000502,254.23462410000502,1,1,0.5019361000158824,,,,,,,,,,,,,,,,,,,,,,,,,,,,,,,,,,,,,,,,,,,,001,A,2022-10-21_18h57.52.159,psychopy,2022.2.4,59.56128349262603,
0,1,Images/Dirt 1.jpg,1,1.6168,0.06853202818535975,0,0,0,1,,,,,0,0,0,0,,,,,0,2,2,0,,,,,,,,,,,,,255.4468668999907,255.94659389997832,,,,,,,,,,,,,,,,,,,,,,,,,255.26675059998524,255.26675059998524,1,1,0.14799919998040423,,,,,,,,,,,,,,,,,,,,,,,,,,,,,,,,,,,,,,,,,,,,001,A,2022-10-21_18h57.52.159,psychopy,2022.2.4,59.56128349262603,
0,1,Images/Horse 1.jpg,2,5.9469,0.9026388811023841,0,0,0,1,,,,,0,0,0,0,,,,,0,3,3,75,,,,,,,,,,,,,256.4469681000046,256.9497993999976,,,,,,,,,,,,,,,,,,,,,,,,,255.94659389997832,255.94659389997832,1,0,0.47782130000996403,,,,,,,,,,,,,,,,,,,,,,,,,,,,,,,,,,,,,,,,,,,,001,A,2022-10-21_18h57.52.159,psychopy,2022.2.4,59.56128349262603,
0,1,Images/Flowers 1.jpg,1,5.8142,0.9766749852638511,0,0,0,1,,,,,0,0,0,0,,,,,0,4,4,25,,,,,,,,,,,,,257.23093459999654,257.7315595999826,,,,,,,,,,,,,,,,,,,,,,,,,256.9497993999976,256.9497993999976,1,1,0.2576639000035357,,,,,,,,,,,,,,,,,,,,,,,,,,,,,,,,,,,,,,,,,,,,001,A,2022-10-21_18h57.52.159,psychopy,2022.2.4,59.56128349262603,
0,1,Images/Destruction 5.jpg,1,2.1143,0.2570234643667684,0,0,0,1,,,,,0,0,0,0,,,,,0,5,5,1,,,,,,,,,,,,,257.9135304999945,258.4146878999891,,,,,,,,,,,,,,,,,,,,,,,,,257.7315595999826,257.7315595999826,1,1,0.16394440000294708,,,,,,,,,,,,,,,,,,,,,,,,,,,,,,,,,,,,,,,,,,,,001,A,2022-10-21_18h57.52.159,psychopy,2022.2.4,59.56128349262603,
0,1,Images/Dog 2.jpg,2,5.9348,0.07502056652413014,0,0,0,1,,,,,0,0,0,0,,,,,0,6,6,54,,,,,,,,,,,,,258.53033789998153,259.03778679997777,,,,,,,,,,,,,,,,,,,,,,,,,258.4146878999891,258.4146878999891,1,0,0.09749590000137687,,,,,,,,,,,,,,,,,,,,,,,,,,,,,,,,,,,,,,,,,,,,001,A,2022-10-21_18h57.52.159,psychopy,2022.2.4,59.56128349262603,
0,1,Images/Lake 2.jpg,1,6.3635,0.1903915426151832,0,0,0,1,,,,,0,0,0,0,,,,,0,7,7,46,,,,,,,,,,,,,259.2305859999906,259.7347715999931,,,,,,,,,,,,,,,,,,,,,,,,,259.03778679997777,259.03778679997777,1,1,0.17064379999646917,,,,,,,,,,,,,,,,,,,,,,,,,,,,,,,,,,,,,,,,,,,,001,A,2022-10-21_18h57.52.159,psychopy,2022.2.4,59.56128349262603,
0,1,Images/Elephant 1.jpg,2,5.8272,0.6910127551651892,0,0,0,1,,,,,0,0,0,0,,,,,0,8,8,40,,,,,,,,,,,,,259.8799025999906,260.383219499985,,,,,,,,,,,,,,,,,,,,,,,,,259.7347715999931,259.7347715999931,1,0,0.11270900000818074,,,,,,,,,,,,,,,,,,,,,,,,,,,,,,,,,,,,,,,,,,,,001,A,2022-10-21_18h57.52.159,psychopy,2022.2.4,59.56128349262603,
0,1,Images/Cat 4.jpg,2,5.798,0.30785698558493335,0,0,0,1,,,,,0,0,0,0,,,,,0,9,9,38,,,,,,,,,,,,,260.4971368999977,260.99900429998524,,,,,,,,,,,,,,,,,,,,,,,,,260.383219499985,260.383219499985,1,0,0.08829159999731928,,,,,,,,,,,,,,,,,,,,,,,,,,,,,,,,,,,,,,,,,,,,001,A,2022-10-21_18h57.52.159,psychopy,2022.2.4,59.56128349262603,
0,1,Images/Garbage dump 3.jpg,1,2.0219,0.6295943303088709,0,0,0,1,,,,,0,0,0,0,,,,,0,10,10,52,,,,,,,,,,,,,261.04700009999215,261.54779879999114,,,,,,,,,,,,,,,,,,,,,,,,,260.99900429998524,260.99900429998524,1,1,0.024737799976719543,,,,,,,,,,,,,,,,,,,,,,,,,,,,,,,,,,,,,,,,,,,,001,A,2022-10-21_18h57.52.159,psychopy,2022.2.4,59.56128349262603,
0,1,Images/Frustrated pose 2.jpg,2,2.6481,0.09932373999273747,0,0,0,1,,,,,0,0,0,0,,,,,0,11,11,49,,,,,,,,,,,,,261.68029229997774,262.1878255000047,,,,,,,,,,,,,,,,,,,,,,,,,261.54779879999114,261.54779879999114,1,0,0.10821379997651093,,,,,,,,,,,,,,,,,,,,,,,,,,,,,,,,,,,,,,,,,,,,001,A,2022-10-21_18h57.52.159,psychopy,2022.2.4,59.56128349262603,
0,1,Images/Fireworks 3.jpg,1,6.0651,0.6859935880123176,0,0,0,1,,,,,0,0,0,0,,,,,0,12,12,47,,,,,,,,,,,,,262.3303561999928,262.83011089998763,,,,,,,,,,,,,,,,,,,,,,,,,262.1878255000047,262.1878255000047,1,1,0.11541749999742024,,,,,,,,,,,,,,,,,,,,,,,,,,,,,,,,,,,,,,,,,,,,001,A,2022-10-21_18h57.52.159,psychopy,2022.2.4,59.56128349262603,
0,1,Images/War 8.jpg,2,1.7473,0.5530710944545294,0,0,0,1,,,,,0,0,0,0,,,,,0,13,13,12,,,,,,,,,,,,,262.94731980000506,263.4471470999997,,,,,,,,,,,,,,,,,,,,,,,,,262.83011089998763,262.83011089998763,1,0,0.08994540001731366,,,,,,,,,,,,,,,,,,,,,,,,,,,,,,,,,,,,,,,,,,,,001,A,2022-10-21_18h57.52.159,psychopy,2022.2.4,59.56128349262603,
0,1,Images/Jail 5.jpg,1,3.0599,0.31125348095634753,0,0,0,1,,,,,0,0,0,0,,,,,0,14,14,7,,,,,,,,,,,,,263.5470082999964,264.0492436999921,,,,,,,,,,,,,,,,,,,,,,,,,263.4471470999997,263.4471470999997,1,1,0.07178890000795946,,,,,,,,,,,,,,,,,,,,,,,,,,,,,,,,,,,,,,,,,,,,001,A,2022-10-21_18h57.52.159,psychopy,2022.2.4,59.56128349262603,
0,1,Images/Tornado 1.jpg,1,2.1274,0.7457681759620104,0,0,0,1,,,,,0,0,0,0,,,,,0,15,15,36,,,,,,,,,,,,,264.18030939999153,264.6823380999849,,,,,,,,,,,,,,,,,,,,,,,,,264.0492436999921,264.0492436999921,1,1,0.10269929998321459,,,,,,,,,,,,,,,,,,,,,,,,,,,,,,,,,,,,,,,,,,,,001,A,2022-10-21_18h57.52.159,psychopy,2022.2.4,59.56128349262603,
0,1,Images/Neonazi 1.jpg,2,2.0577,0.089888009773616,0,0,0,1,,,,,0,0,0,0,,,,,0,16,16,66,,,,,,,,,,,,,264.77998550000484,265.27985219997936,,,,,,,,,,,,,,,,,,,,,,,,,264.6823380999849,264.6823380999849,1,0,0.06924109999090433,,,,,,,,,,,,,,,,,,,,,,,,,,,,,,,,,,,,,,,,,,,,001,A,2022-10-21_18h57.52.159,psychopy,2022.2.4,59.56128349262603,
0,1,Images/Weapon 1.jpg,1,2.8209,0.6585203326203783,0,0,0,1,,,,,0,0,0,0,,,,,0,17,17,16,,,,,,,,,,,,,265.38025930000003,265.8799631999864,,,,,,,,,,,,,,,,,,,,,,,,,265.27985219997936,265.27985219997936,1,1,0.07242050001514144,,,,,,,,,,,,,,,,,,,,,,,,,,,,,,,,,,,,,,,,,,,,001,A,2022-10-21_18h57.52.159,psychopy,2022.2.4,59.56128349262603,
0,1,Images/Dog 19.jpg,2,5.9814,0.10803629375699186,0,0,0,1,,,,,0,0,0,0,,,,,0,18,18,11,,,,,,,,,,,,,265.9300702000037,266.4323199999926,,,,,,,,,,,,,,,,,,,,,,,,,265.8799631999864,265.8799631999864,1,0,0.031070399971213192,,,,,,,,,,,,,,,,,,,,,,,,,,,,,,,,,,,,,,,,,,,,001,A,2022-10-21_18h57.52.159,psychopy,2022.2.4,59.56128349262603,
0,1,Images/Miserable pose 4.jpg,2,2.5702,0.5411508855388304,0,0,0,1,,,,,0,0,0,0,,,,,0,19,19,32,,,,,,,,,,,,,266.547407999984,267.0467215999961,,,,,,,,,,,,,,,,,,,,,,,,,266.4323199999926,266.4323199999926,1,0,0.09580959999584593,,,,,,,,,,,,,,,,,,,,,,,,,,,,,,,,,,,,,,,,,,,,001,A,2022-10-21_18h57.52.159,psychopy,2022.2.4,59.56128349262603,
0,1,Images/Sad pose 1.jpg,2,2.8801,0.608695029724716,0,0,0,1,,,,,0,0,0,0,,,,,0,20,20,71,,,,,,,,,,,,,267.1636804000009,267.6632472999918,,,,,,,,,,,,,,,,,,,,,,,,,267.0467215999961,267.0467215999961,1,0,0.09722289998899214,,,,,,,,,,,,,,,,,,,,,,,,,,,,,,,,,,,,,,,,,,,,001,A,2022-10-21_18h57.52.159,psychopy,2022.2.4,59.56128349262603,
0,1,Images/Massage 2.jpg,2,5.7288,0.7598843971589982,0,0,0,1,,,,,0,0,0,0,,,,,0,21,21,72,,,,,,,,,,,,,267.69669529999373,268.199908199982,,,,,,,,,,,,,,,,,,,,,,,,,267.6632472999918,267.6632472999918,1,0,0.009403200005181134,,,,,,,,,,,,,,,,,,,,,,,,,,,,,,,,,,,,,,,,,,,,001,A,2022-10-21_18h57.52.159,psychopy,2022.2.4,59.56128349262603,
0,1,Images/Toilet 4.jpg,1,2.4986,0.6711536965753584,0,0,0,1,,,,,0,0,0,0,,,,,0,22,22,67,,,,,,,,,,,,,268.2973497999774,268.7964614999946,,,,,,,,,,,,,,,,,,,,,,,,,268.199908199982,268.199908199982,1,1,0.0801445999823045,,,,,,,,,,,,,,,,,,,,,,,,,,,,,,,,,,,,,,,,,,,,001,A,2022-10-21_18h57.52.159,psychopy,2022.2.4,59.56128349262603,
0,1,Images/Dead bodies 2.jpg,2,1.2275,0.9882559393650525,0,0,0,1,,,,,0,0,0,0,,,,,0,23,23,53,,,,,,,,,,,,,268.91364689997863,269.41541580000194,,,,,,,,,,,,,,,,,,,,,,,,,268.7964614999946,268.7964614999946,1,0,0.09088760000304319,,,,,,,,,,,,,,,,,,,,,,,,,,,,,,,,,,,,,,,,,,,,001,A,2022-10-21_18h57.52.159,psychopy,2022.2.4,59.56128349262603,
0,1,Images/Destruction 10.jpg,1,2.0682,0.8776428714390194,0,0,0,1,,,,,0,0,0,0,,,,,0,24,24,9,,,,,,,,,,,,,269.4803127999767,269.98123469998245,,,,,,,,,,,,,,,,,,,,,,,,,269.41541580000194,269.41541580000194,1,1,0.047373699984746054,,,,,,,,,,,,,,,,,,,,,,,,,,,,,,,,,,,,,,,,,,,,001,A,2022-10-21_18h57.52.159,psychopy,2022.2.4,59.56128349262603,
0,1,Images/Gun 6.jpg,1,2.9016,0.42568611342078966,0,0,0,1,,,,,0,0,0,0,,,,,0,25,25,42,,,,,,,,,,,,,270.1137412999815,270.617107500002,,,,,,,,,,,,,,,,,,,,,,,,,269.98123469998245,269.98123469998245,1,1,0.11351940000895411,,,,,,,,,,,,,,,,,,,,,,,,,,,,,,,,,,,,,,,,,,,,001,A,2022-10-21_18h57.52.159,psychopy,2022.2.4,59.56128349262603,
0,1,Images/Mother 1.jpg,2,6.0784,0.4860853545085757,0,0,0,1,,,,,0,0,0,0,,,,,0,26,26,24,,,,,,,,,,,,,270.7134678000002,271.21489199998905,,,,,,,,,,,,,,,,,,,,,,,,,270.617107500002,270.617107500002,1,0,0.07068319999962114,,,,,,,,,,,,,,,,,,,,,,,,,,,,,,,,,,,,,,,,,,,,001,A,2022-10-21_18h57.52.159,psychopy,2022.2.4,59.56128349262603,
0,1,Images/Mother 5.jpg,2,5.9438,0.5444126340407461,0,0,0,1,,,,,0,0,0,0,,,,,0,27,27,74,,,,,,,,,,,,,271.3147011999972,271.81541129999096,,,,,,,,,,,,,,,,,,,,,,,,,271.21489199998905,271.21489199998905,1,0,0.08024089998798445,,,,,,,,,,,,,,,,,,,,,,,,,,,,,,,,,,,,,,,,,,,,001,A,2022-10-21_18h57.52.159,psychopy,2022.2.4,59.56128349262603,
0,1,Images/Cold 8.jpg,1,5.5742,0.43610885762593654,0,0,0,1,,,,,0,0,0,0,,,,,0,28,28,30,,,,,,,,,,,,,271.8637469999958,272.3892011999851,,,,,,,,,,,,,,,,,,,,,,,,,271.81541129999096,271.81541129999096,1,1,0.016348499979358166,,,,,,,,,,,,,,,,,,,,,,,,,,,,,,,,,,,,,,,,,,,,001,A,2022-10-21_18h57.52.159,psychopy,2022.2.4,59.56128349262603,
0,1,Images/Lake 12.jpg,1,6.4088,0.2111153214292586,0,0,0,1,,,,,0,0,0,0,,,,,0,29,29,57,,,,,,,,,,,,,272.93032459999085,273.43236169999,,,,,,,,,,,,,,,,,,,,,,,,,272.3892011999851,272.3892011999851,1,1,0.5134607999934815,,,,,,,,,,,,,,,,,,,,,,,,,,,,,,,,,,,,,,,,,,,,001,A,2022-10-21_18h57.52.159,psychopy,2022.2.4,59.56128349262603,
0,1,Images/Angry face 3.jpg,2,2.5188,0.01731858207800252,0,0,0,1,,,,,0,0,0,0,,,,,0,30,30,27,,,,,,,,,,,,,273.6470423999999,274.1488935999805,,,,,,,,,,,,,,,,,,,,,,,,,273.43236169999,273.43236169999,1,0,0.18317359997308813,,,,,,,,,,,,,,,,,,,,,,,,,,,,,,,,,,,,,,,,,,,,001,A,2022-10-21_18h57.52.159,psychopy,2022.2.4,59.56128349262603,
0,1,Images/Bridge 1.jpg,1,5.9383,0.2953117573162162,0,0,0,1,,,,,0,0,0,0,,,,,0,31,31,50,,,,,,,,,,,,,274.2642159999814,274.76325749998796,,,,,,,,,,,,,,,,,,,,,,,,,274.1488935999805,274.1488935999805,1,1,0.09900379998725839,,,,,,,,,,,,,,,,,,,,,,,,,,,,,,,,,,,,,,,,,,,,001,A,2022-10-21_18h57.52.159,psychopy,2022.2.4,59.56128349262603,
0,1,Images/Galaxy 2.jpg,1,5.7867,0.701723993367569,0,0,0,1,,,,,0,0,0,0,,,,,0,32,32,51,,,,,,,,,,,,,274.82993029998033,275.331139899994,,,,,,,,,,,,,,,,,,,,,,,,,274.76325749998796,274.76325749998796,1,1,0.04429099999833852,,,,,,,,,,,,,,,,,,,,,,,,,,,,,,,,,,,,,,,,,,,,001,A,2022-10-21_18h57.52.159,psychopy,2022.2.4,59.56128349262603,
0,1,Images/Sidewalk 6.jpg,1,2.7978,0.8172575499898311,0,0,0,1,,,,,0,0,0,0,,,,,0,33,33,79,,,,,,,,,,,,,275.41371259998414,275.91704000000027,,,,,,,,,,,,,,,,,,,,,,,,,275.331139899994,275.331139899994,1,1,0.05161359999328852,,,,,,,,,,,,,,,,,,,,,,,,,,,,,,,,,,,,,,,,,,,,001,A,2022-10-21_18h57.52.159,psychopy,2022.2.4,59.56128349262603,
0,1,Images/Frustrated pose 5.jpg,2,2.481,0.6171253093911958,0,0,0,1,,,,,0,0,0,0,,,,,0,34,34,10,,,,,,,,,,,,,276.4474922999798,276.9497943999886,,,,,,,,,,,,,,,,,,,,,,,,,275.91704000000027,275.91704000000027,1,0,0.5143800999794621,,,,,,,,,,,,,,,,,,,,,,,,,,,,,,,,,,,,,,,,,,,,001,A,2022-10-21_18h57.52.159,psychopy,2022.2.4,59.56128349262603,
0,1,Images/Excited face 2.jpg,2,5.8009,0.12716745141362562,0,0,0,1,,,,,0,0,0,0,,,,,0,35,35,34,,,,,,,,,,,,,277.0966567999858,277.5980329999875,,,,,,,,,,,,,,,,,,,,,,,,,276.9497943999886,276.9497943999886,1,0,0.12158810000983067,,,,,,,,,,,,,,,,,,,,,,,,,,,,,,,,,,,,,,,,,,,,001,A,2022-10-21_18h57.52.159,psychopy,2022.2.4,59.56128349262603,
0,1,Images/Gun 10.jpg,1,2.5934,0.5526612727945294,0,0,0,1,,,,,0,0,0,0,,,,,0,36,36,6,,,,,,,,,,,,,277.6469427999982,278.1471862999897,,,,,,,,,,,,,,,,,,,,,,,,,277.5980329999875,277.5980329999875,1,1,0.016894200001843274,,,,,,,,,,,,,,,,,,,,,,,,,,,,,,,,,,,,,,,,,,,,001,A,2022-10-21_18h57.52.159,psychopy,2022.2.4,59.56128349262603,
0,1,Images/Dog 18.jpg,2,6.1614,0.8550452441698723,0,0,0,1,,,,,0,0,0,0,,,,,0,37,37,35,,,,,,,,,,,,,278.2469073999964,278.7469770000025,,,,,,,,,,,,,,,,,,,,,,,,,278.1471862999897,278.1471862999897,1,0,0.07712030000402592,,,,,,,,,,,,,,,,,,,,,,,,,,,,,,,,,,,,,,,,,,,,001,A,2022-10-21_18h57.52.159,psychopy,2022.2.4,59.56128349262603,
0,1,Images/Beach 2.jpg,1,6.2944,0.20740057162757386,0,0,0,1,,,,,0,0,0,0,,,,,0,38,38,39,,,,,,,,,,,,,279.2302653999941,279.73008340000524,,,,,,,,,,,,,,,,,,,,,,,,,278.7469770000025,278.7469770000025,1,1,0.46085129998391494,,,,,,,,,,,,,,,,,,,,,,,,,,,,,,,,,,,,,,,,,,,,001,A,2022-10-21_18h57.52.159,psychopy,2022.2.4,59.56128349262603,
0,1,Images/Scared face 3.jpg,2,3.0377,0.8892379777884233,0,0,0,1,,,,,0,0,0,0,,,,,0,39,39,5,,,,,,,,,,,,,279.8966843999806,,,,,,,,,,,,,,,,,,,,,,,,,,279.73008340000524,279.73008340000524,1,0,0.1409163000062108,,,,,,,,,,,,,,,,,,,,,,,,,,,,,,,,,,,,,,,,,,,,001,A,2022-10-21_18h57.52.159,psychopy,2022.2.4,59.56128349262603,
0,1,Images/Lake 10.jpg,1,6.125,0.03762475418645217,0,0,0,1,,,,,0,0,0,0,,,,,0,40,40,44,,,,,,,,,,,,,280.4807049999945,280.98559939998086,,,,,,,,,,,,,,,,,,,,,,,,,280.41250999999465,280.41250999999465,1,1,0.035438000020803884,,,,,,,,,,,,,,,,,,,,,,,,,,,,,,,,,,,,,,,,,,,,001,A,2022-10-21_18h57.52.159,psychopy,2022.2.4,59.56128349262603,
0,1,Images/Couple 8.jpg,2,5.7678,0.9589062450467681,0,0,0,1,,,,,0,0,0,0,,,,,0,41,41,48,,,,,,,,,,,,,281.0800682999834,281.57979619997786,,,,,,,,,,,,,,,,,,,,,,,,,280.98559939998086,280.98559939998086,1,0,0.07004290001350455,,,,,,,,,,,,,,,,,,,,,,,,,,,,,,,,,,,,,,,,,,,,001,A,2022-10-21_18h57.52.159,psychopy,2022.2.4,59.56128349262603,
0,1,Images/Sleepy pose 1.jpg,2,2.603,0.02566586227899037,0,0,0,1,,,,,0,0,0,0,,,,,0,42,42,20,,,,,,,,,,,,,282.0466194000037,282.5473869999987,,,,,,,,,,,,,,,,,,,,,,,,,281.57979619997786,281.57979619997786,1,0,0.4433357999951113,,,,,,,,,,,,,,,,,,,,,,,,,,,,,,,,,,,,,,,,,,,,001,A,2022-10-21_18h57.52.159,psychopy,2022.2.4,59.56128349262603,
0,1,Images/Miserable pose 1.jpg,2,2.579,0.03572930250516104,0,0,0,1,,,,,0,0,0,0,,,,,0,43,43,73,,,,,,,,,,,,,282.61372279998614,283.11490519999643,,,,,,,,,,,,,,,,,,,,,,,,,282.5473869999987,282.5473869999987,1,0,0.04334560001734644,,,,,,,,,,,,,,,,,,,,,,,,,,,,,,,,,,,,,,,,,,,,001,A,2022-10-21_18h57.52.159,psychopy,2022.2.4,59.56128349262603,
0,1,Images/Gun 4.jpg,1,2.9016,0.8288210597496947,0,0,0,1,,,,,0,0,0,0,,,,,0,44,44,55,,,,,,,,,,,,,283.1970560000045,283.69723009999143,,,,,,,,,,,,,,,,,,,,,,,,,283.11490519999643,283.11490519999643,1,1,0.06134119999478571,,,,,,,,,,,,,,,,,,,,,,,,,,,,,,,,,,,,,,,,,,,,001,A,2022-10-21_18h57.52.159,psychopy,2022.2.4,59.56128349262603,
0,1,Images/Flowers 6.jpg,1,5.9556,0.2673270754320648,0,0,0,1,,,,,0,0,0,0,,,,,0,45,45,41,,,,,,,,,,,,,283.81372439998086,284.3200488000002,,,,,,,,,,,,,,,,,,,,,,,,,283.69723009999143,283.69723009999143,1,1,0.0934899999992922,,,,,,,,,,,,,,,,,,,,,,,,,,,,,,,,,,,,,,,,,,,,001,A,2022-10-21_18h57.52.159,psychopy,2022.2.4,59.56128349262603,
0,1,Images/Frustrated pose 1.jpg,2,2.3937,0.7197407902889942,0,0,0,1,,,,,0,0,0,0,,,,,0,46,46,3,,,,,,,,,,,,,284.4137802000041,284.9133063000045,,,,,,,,,,,,,,,,,,,,,,,,,284.3200488000002,284.3200488000002,1,0,0.07153939999989234,,,,,,,,,,,,,,,,,,,,,,,,,,,,,,,,,,,,,,,,,,,,001,A,2022-10-21_18h57.52.159,psychopy,2022.2.4,59.56128349262603,
0,1,Images/Picnic 1.jpg,2,6.0998,0.7462581288399163,0,0,0,1,,,,,0,0,0,0,,,,,0,47,47,70,,,,,,,,,,,,,285.013804599992,285.51355689999764,,,,,,,,,,,,,,,,,,,,,,,,,284.9133063000045,284.9133063000045,1,0,0.0701206999947317,,,,,,,,,,,,,,,,,,,,,,,,,,,,,,,,,,,,,,,,,,,,001,A,2022-10-21_18h57.52.159,psychopy,2022.2.4,59.56128349262603,
0,1,Images/Intensity 1.jpg,2,2.8252,0.6123979858646935,0,0,0,1,,,,,0,0,0,0,,,,,0,48,48,76,,,,,,,,,,,,,285.5970440999954,286.0967232999974,,,,,,,,,,,,,,,,,,,,,,,,,285.51355689999764,285.51355689999764,1,0,0.06222930000512861,,,,,,,,,,,,,,,,,,,,,,,,,,,,,,,,,,,,,,,,,,,,001,A,2022-10-21_18h57.52.159,psychopy,2022.2.4,59.56128349262603,
0,1,Images/Wedding 2.jpg,2,5.7601,0.2242304432087503,0,0,0,1,,,,,0,0,0,0,,,,,0,49,49,37,,,,,,,,,,,,,286.14673439998296,286.64981350000016,,,,,,,,,,,,,,,,,,,,,,,,,286.0967232999974,286.0967232999974,1,0,0.030962200020439923,,,,,,,,,,,,,,,,,,,,,,,,,,,,,,,,,,,,,,,,,,,,001,A,2022-10-21_18h57.52.159,psychopy,2022.2.4,59.56128349262603,
0,1,Images/Fire 7.jpg,1,1.7007,0.9031544214003061,0,0,0,1,,,,,0,0,0,0,,,,,0,50,50,60,,,,,,,,,,,,,286.7975430999941,287.2988888999971,,,,,,,,,,,,,,,,,,,,,,,,,286.64981350000016,286.64981350000016,1,1,0.1255014999769628,,,,,,,,,,,,,,,,,,,,,,,,,,,,,,,,,,,,,,,,,,,,001,A,2022-10-21_18h57.52.159,psychopy,2022.2.4,59.56128349262603,
0,1,Images/Birthday 3.jpg,1,5.5506,0.871405098949419,0,0,0,1,,,,,0,0,0,0,,,,,0,51,51,61,,,,,,,,,,,,,288.14672359998804,,,,,,,,,,,,,,,,,,,,,,,,,,287.2988888999971,287.2988888999971,1,1,0.8278405000164639,,,,,,,,,,,,,,,,,,,,,,,,,,,,,,,,,,,,,,,,,,,,001,A,2022-10-21_18h57.52.159,psychopy,2022.2.4,59.56128349262603,
0,1,Images/Bird 1.jpg,2,5.9051,0.07169416964078457,0,0,0,1,,,,,0,0,0,0,,,,,0,52,52,15,,,,,,,,,,,,,288.81384259997867,289.3172602999839,,,,,,,,,,,,,,,,,,,,,,,,,288.65359430000535,288.65359430000535,1,0,0.1383720000158064,,,,,,,,,,,,,,,,,,,,,,,,,,,,,,,,,,,,,,,,,,,,001,A,2022-10-21_18h57.52.159,psychopy,2022.2.4,59.56128349262603,
0,1,Images/Galaxy 4.jpg,1,5.4342,0.012258795229660557,0,0,0,1,,,,,0,0,0,0,,,,,0,53,53,18,,,,,,,,,,,,,289.38027629998396,289.88055499998154,,,,,,,,,,,,,,,,,,,,,,,,,289.3172602999839,289.3172602999839,1,1,0.0416657000023406,,,,,,,,,,,,,,,,,,,,,,,,,,,,,,,,,,,,,,,,,,,,001,A,2022-10-21_18h57.52.159,psychopy,2022.2.4,59.56128349262603,
0,1,Images/Flowers 1.jpg,1,5.8142,0.5412454842806304,0,0,0,1,,,,,0,0,0,0,,,,,0,54,54,43,,,,,,,,,,,,,289.9639804000035,290.463222099992,,,,,,,,,,,,,,,,,,,,,,,,,289.88055499998154,289.88055499998154,1,1,0.06233089999295771,,,,,,,,,,,,,,,,,,,,,,,,,,,,,,,,,,,,,,,,,,,,001,A,2022-10-21_18h57.52.159,psychopy,2022.2.4,59.56128349262603,
0,1,Images/Wedding 4.jpg,1,5.8256,0.3605907445545198,0,0,0,1,,,,,0,0,0,0,,,,,0,55,55,19,,,,,,,,,,,,,290.99717149999924,291.4977979999967,,,,,,,,,,,,,,,,,,,,,,,,,290.463222099992,290.463222099992,1,1,0.5136592999915592,,,,,,,,,,,,,,,,,,,,,,,,,,,,,,,,,,,,,,,,,,,,001,A,2022-10-21_18h57.52.159,psychopy,2022.2.4,59.56128349262603,
0,1,Images/Explosion 1.jpg,1,2.7061,0.24574454531708345,0,0,0,1,,,,,0,0,0,0,,,,,0,56,56,77,,,,,,,,,,,,,291.6305138999887,292.13001870000153,,,,,,,,,,,,,,,,,,,,,,,,,291.4977979999967,291.4977979999967,1,1,0.10139249998610467,,,,,,,,,,,,,,,,,,,,,,,,,,,,,,,,,,,,,,,,,,,,001,A,2022-10-21_18h57.52.159,psychopy,2022.2.4,59.56128349262603,
0,1,Images/Soldiers 7.jpg,2,2.5465,0.13500107972103892,0,0,0,1,,,,,0,0,0,0,,,,,0,57,57,62,,,,,,,,,,,,,292.1801845000009,292.68072360000224,,,,,,,,,,,,,,,,,,,,,,,,,292.13001870000153,292.13001870000153,1,0,0.02105969999684021,,,,,,,,,,,,,,,,,,,,,,,,,,,,,,,,,,,,,,,,,,,,001,A,2022-10-21_18h57.52.159,psychopy,2022.2.4,59.56128349262603,
0,1,Images/Tornado 4.jpg,1,2.7192,0.35882841291674683,0,0,0,1,,,,,0,0,0,0,,,,,0,58,58,2,,,,,,,,,,,,,292.7971031999914,293.30028019999736,,,,,,,,,,,,,,,,,,,,,,,,,292.68072360000224,292.68072360000224,1,1,0.09460959999705665,,,,,,,,,,,,,,,,,,,,,,,,,,,,,,,,,,,,,,,,,,,,001,A,2022-10-21_18h57.52.159,psychopy,2022.2.4,59.56128349262603,
0,1,Images/Snake 4.jpg,2,2.4159,0.3612516676203783,0,0,0,1,,,,,0,0,0,0,,,,,0,59,59,28,,,,,,,,,,,,,293.3970430000045,293.8973680000054,,,,,,,,,,,,,,,,,,,,,,,,,293.30028019999736,293.30028019999736,1,0,0.06721330000436865,,,,,,,,,,,,,,,,,,,,,,,,,,,,,,,,,,,,,,,,,,,,001,A,2022-10-21_18h57.52.159,psychopy,2022.2.4,59.56128349262603,
0,1,Images/Jail 2.jpg,1,1.9691,0.7287341893927104,0,0,0,1,,,,,0,0,0,0,,,,,0,60,60,64,,,,,,,,,,,,,294.48016429998097,294.9824499999813,,,,,,,,,,,,,,,,,,,,,,,,,293.8973680000054,293.8973680000054,1,1,0.5579698999936227,,,,,,,,,,,,,,,,,,,,,,,,,,,,,,,,,,,,,,,,,,,,001,A,2022-10-21_18h57.52.159,psychopy,2022.2.4,59.56128349262603,
0,1,Images/Lake 3.jpg,1,5.9732,0.8610769607229587,0,0,0,1,,,,,0,0,0,0,,,,,0,61,61,22,,,,,,,,,,,,,295.99697670000023,,,,,,,,,,,,,,,,,,,,,,,,,,294.9824499999813,294.9824499999813,None,0,,,,,,,,,,,,,,,,,,,,,,,,,,,,,,,,,,,,,,,,,,,,,001,A,2022-10-21_18h57.52.159,psychopy,2022.2.4,59.56128349262603,
0,1,Images/Hangover 1.jpg,2,2.3921,0.45081968953948404,0,0,0,1,,,,,0,0,0,0,,,,,0,62,62,45,,,,,,,,,,,,,296.5807468999992,297.08233279999695,,,,,,,,,,,,,,,,,,,,,,,,,296.49689049998415,296.49689049998415,1,0,0.06340869999257848,,,,,,,,,,,,,,,,,,,,,,,,,,,,,,,,,,,,,,,,,,,,001,A,2022-10-21_18h57.52.159,psychopy,2022.2.4,59.56128349262603,
0,1,Images/Cat 5.jpg,2,6.1842,0.9954257341646925,0,0,0,1,,,,,0,0,0,0,,,,,0,63,63,4,,,,,,,,,,,,,297.4470267999859,297.9468464999809,,,,,,,,,,,,,,,,,,,,,,,,,297.08233279999695,297.08233279999695,1,0,0.3420066999970004,,,,,,,,,,,,,,,,,,,,,,,,,,,,,,,,,,,,,,,,,,,,001,A,2022-10-21_18h57.52.159,psychopy,2022.2.4,59.56128349262603,
0,1,Images/Injury 1.jpg,2,1.9865,0.7457269672855836,0,0,0,1,,,,,0,0,0,0,,,,,0,64,64,13,,,,,,,,,,,,,298.0970249999955,298.598055999988,,,,,,,,,,,,,,,,,,,,,,,,,297.9468464999809,297.9468464999809,1,0,0.12476589999278076,,,,,,,,,,,,,,,,,,,,,,,,,,,,,,,,,,,,,,,,,,,,001,A,2022-10-21_18h57.52.159,psychopy,2022.2.4,59.56128349262603,
0,1,Images/Flowers 9.jpg,1,5.9383,0.7319232383981693,0,0,0,1,,,,,0,0,0,0,,,,,0,65,65,56,,,,,,,,,,,,,298.99759839999024,299.4966274999897,,,,,,,,,,,,,,,,,,,,,,,,,298.598055999988,298.598055999988,1,1,0.36902899999404326,,,,,,,,,,,,,,,,,,,,,,,,,,,,,,,,,,,,,,,,,,,,001,A,2022-10-21_18h57.52.159,psychopy,2022.2.4,59.56128349262603,
0,1,Images/Baby 6.jpg,2,6.0604,0.910778212048847,0,0,0,1,,,,,0,0,0,0,,,,,0,66,66,65,,,,,,,,,,,,,299.64681079998263,300.14814969999134,,,,,,,,,,,,,,,,,,,,,,,,,299.4966274999897,299.4966274999897,1,0,0.12698780000209808,,,,,,,,,,,,,,,,,,,,,,,,,,,,,,,,,,,,,,,,,,,,001,A,2022-10-21_18h57.52.159,psychopy,2022.2.4,59.56128349262603,
0,1,Images/Rainbow 1.jpg,1,6.2286,0.6206583722842239,0,0,0,1,,,,,0,0,0,0,,,,,0,67,67,8,,,,,,,,,,,,,300.39701639997656,300.8968348999915,,,,,,,,,,,,,,,,,,,,,,,,,300.14814969999134,300.14814969999134,1,1,0.2186578999971971,,,,,,,,,,,,,,,,,,,,,,,,,,,,,,,,,,,,,,,,,,,,001,A,2022-10-21_18h57.52.159,psychopy,2022.2.4,59.56128349262603,
0,1,Images/Police 5.jpg,2,2.4345,0.718118724844543,0,0,0,1,,,,,0,0,0,0,,,,,0,68,68,63,,,,,,,,,,,,,301.21390760000213,301.71328319999157,,,,,,,,,,,,,,,,,,,,,,,,,300.8968348999915,300.8968348999915,1,0,0.2953189999971073,,,,,,,,,,,,,,,,,,,,,,,,,,,,,,,,,,,,,,,,,,,,001,A,2022-10-21_18h57.52.159,psychopy,2022.2.4,59.56128349262603,
0,1,Images/Bird 3.jpg,2,6.0495,0.36312418635078825,0,0,0,1,,,,,0,0,0,0,,,,,0,69,69,69,,,,,,,,,,,,,301.86378169999807,302.3672560999985,,,,,,,,,,,,,,,,,,,,,,,,,301.71328319999157,301.71328319999157,1,0,0.12560249998932704,,,,,,,,,,,,,,,,,,,,,,,,,,,,,,,,,,,,,,,,,,,,001,A,2022-10-21_18h57.52.159,psychopy,2022.2.4,59.56128349262603,
0,1,Images/Dancing 7.jpg,2,5.8813,0.38822819326443003,0,0,0,1,,,,,0,0,0,0,,,,,0,70,70,33,,,,,,,,,,,,,302.6139605999924,303.11421669999254,,,,,,,,,,,,,,,,,,,,,,,,,302.3672560999985,302.3672560999985,1,0,0.22482609999133274,,,,,,,,,,,,,,,,,,,,,,,,,,,,,,,,,,,,,,,,,,,,001,A,2022-10-21_18h57.52.159,psychopy,2022.2.4,59.56128349262603,
0,1,Images/Miserable pose 5.jpg,2,2.9754,0.6764132965539015,0,0,0,1,,,,,0,0,0,0,,,,,0,71,71,59,,,,,,,,,,,,,303.31392439999036,303.81669639999745,,,,,,,,,,,,,,,,,,,,,,,,,303.11421669999254,303.11421669999254,1,0,0.17301929998211563,,,,,,,,,,,,,,,,,,,,,,,,,,,,,,,,,,,,,,,,,,,,001,A,2022-10-21_18h57.52.159,psychopy,2022.2.4,59.56128349262603,
0,1,Images/Baby 5.jpg,2,6.1553,0.36204129300835786,0,0,0,1,,,,,0,0,0,0,,,,,0,72,72,29,,,,,,,,,,,,,304.09662249998655,304.5974826999882,,,,,,,,,,,,,,,,,,,,,,,,,303.81669639999745,303.81669639999745,1,0,0.2624469999864232,,,,,,,,,,,,,,,,,,,,,,,,,,,,,,,,,,,,,,,,,,,,001,A,2022-10-21_18h57.52.159,psychopy,2022.2.4,59.56128349262603,
0,1,Images/Yarn 1.jpg,1,2.5645,0.3650789138885251,0,0,0,1,,,,,0,0,0,0,,,,,0,73,73,68,,,,,,,,,,,,,304.81392049998976,305.3213147999777,,,,,,,,,,,,,,,,,,,,,,,,,304.5974826999882,304.5974826999882,1,1,0.1862449999898672,,,,,,,,,,,,,,,,,,,,,,,,,,,,,,,,,,,,,,,,,,,,001,A,2022-10-21_18h57.52.159,psychopy,2022.2.4,59.56128349262603,
0,1,Images/Bloody knife 1.jpg,1,1.8704,0.291674749984423,0,0,0,1,,,,,0,0,0,0,,,,,0,74,74,23,,,,,,,,,,,,,305.4973280999984,305.9965179999999,,,,,,,,,,,,,,,,,,,,,,,,,305.3213147999777,305.3213147999777,1,1,0.1495584999793209,,,,,,,,,,,,,,,,,,,,,,,,,,,,,,,,,,,,,,,,,,,,001,A,2022-10-21_18h57.52.159,psychopy,2022.2.4,59.56128349262603,
0,1,Images/Car Accident 3.jpg,1,2.7945,0.8674906689951463,0,0,0,1,,,,,0,0,0,0,,,,,0,75,75,58,,,,,,,,,,,,,306.23040209998726,306.73271849998855,,,,,,,,,,,,,,,,,,,,,,,,,305.9965179999999,305.9965179999999,1,1,0.20313750000786968,,,,,,,,,,,,,,,,,,,,,,,,,,,,,,,,,,,,,,,,,,,,001,A,2022-10-21_18h57.52.159,psychopy,2022.2.4,59.56128349262603,
0,1,Images/Sad pose 4.jpg,2,2.8282,0.3022855928691909,0,0,0,1,,,,,0,0,0,0,,,,,0,76,76,26,,,,,,,,,,,,,307.0804575999791,307.58160239999415,,,,,,,,,,,,,,,,,,,,,,,,,306.73271849998855,306.73271849998855,1,0,0.31571870000334457,,,,,,,,,,,,,,,,,,,,,,,,,,,,,,,,,,,,,,,,,,,,001,A,2022-10-21_18h57.52.159,psychopy,2022.2.4,59.56128349262603,
0,1,Images/Flowers 7.jpg,1,5.7452,0.6487310213844394,0,0,0,1,,,,,0,0,0,0,,,,,0,77,77,14,,,,,,,,,,,,,307.7637695999874,308.2658811000001,,,,,,,,,,,,,,,,,,,,,,,,,307.58160239999415,307.58160239999415,1,1,0.1621439000009559,,,,,,,,,,,,,,,,,,,,,,,,,,,,,,,,,,,,,,,,,,,,001,A,2022-10-21_18h57.52.159,psychopy,2022.2.4,59.56128349262603,
0,1,Images/Explosion 4.jpg,1,2.4912,0.9480903593822178,0,0,0,1,,,,,0,0,0,0,,,,,0,78,78,78,,,,,,,,,,,,,308.48035090000485,308.98215369999525,,,,,,,,,,,,,,,,,,,,,,,,,308.2658811000001,308.2658811000001,1,1,0.1820859000144992,,,,,,,,,,,,,,,,,,,,,,,,,,,,,,,,,,,,,,,,,,,,001,A,2022-10-21_18h57.52.159,psychopy,2022.2.4,59.56128349262603,
0,1,Images/Wedding 6.jpg,2,6.0481,0.17558086858741717,0,0,0,1,,,,,0,0,0,0,,,,,0,79,79,31,,,,,,,,,,,,,309.08063300000504,309.58053229999496,,,,,,,,,,,,,,,,,,,,,,,,,308.98215369999525,308.98215369999525,1,0,0.08124769997084513,,,,,,,,,,,,,,,,,,,,,,,,,,,,,,,,,,,,,,,,,,,,001,A,2022-10-21_18h57.52.159,psychopy,2022.2.4,59.56128349262603,
0,1,,,,,0,0,0,1,,,,,0,0,0,0,,,,,,,,,,,,,,,,,,,,,,,,,,,,,,,,,,,,,,,,,,,,,,,,,,,,,,,,,,,,,,,,,,,,,,,,,,,,,,,,,,,,,,,,,,,,,,,001,A,2022-10-21_18h57.52.159,psychopy,2022.2.4,59.56128349262603,
1,0,Images/Goat 1.jpg,1,,,0,1,1,0,0,0,0,0,,,,,,,,,,,,,0,0,0,0,,,,,,,,,311.79804409999633,312.29744490000303,,,,,,,,,,,,,,,,,,,,,,,,,,,,,,309.58053229999496,309.58053229999496,space,1.4512469999899622,311.07930230000056,311.07930230000056,0.02263719998882152,1,1,0.6887282000097912,0.0,0.0,0,0,0,0,0,0,0,0,0,0,0,0.7123769999889191,,,,,,,,,,,,,,,,,,,,001,A,2022-10-21_18h57.52.159,psychopy,2022.2.4,59.56128349262603,
1,0,Images/Happy face 2.jpg,1,,,0,1,1,0,0,0,0,0,,,,,,,,,,,,,0,1,1,1,,,,,,,,,312.68052069999976,313.18061329997727,,,,,,,,,,,,,,,,,,,,,,,,,,,,,,,,,,312.29744490000303,312.29744490000303,-0.00044720000005327165,1,1,0.365510900010122,0.0,0.0,0,0,0,0,0,0,0,0,0,0,0,0.3789919000118971,,,,,,,,,,,,,,,,,,,,001,A,2022-10-21_18h57.52.159,psychopy,2022.2.4,59.56128349262603,
1,0,Images/Storage 1.jpg,2,,,0,1,1,0,0,0,0,0,,,,,,,,,,,,,0,2,2,9,,,,,,,,,313.3970494999958,313.8969797999889,,,,,,,,,,,,,,,,,,,,,,,,,,,,,,,,,,313.18061329997727,313.18061329997727,0.002012500015553087,1,0,0.19556170000578277,0.0,0.0,0,0,0,0,0,0,0,0,0,0,0,0.21084970000083558,,,,,,,,,,,,,,,,,,,,001,A,2022-10-21_18h57.52.159,psychopy,2022.2.4,59.56128349262603,
1,0,Images/Gun 5.jpg,2,,,0,1,1,0,0,0,0,0,,,,,,,,,,,,,0,3,3,5,,,,,,,,,314.18020479998086,314.68424279999454,,,,,,,,,,,,,,,,,,,,,,,,,,,,,,,,,,313.8969797999889,313.8969797999889,0.003563400008715689,1,0,0.25519190001068637,0.0,0.0,0,0,0,0,0,0,0,0,0,0,0,0.2773075000150129,,,,,,,,,,,,,,,,,,,,001,A,2022-10-21_18h57.52.159,psychopy,2022.2.4,59.56128349262603,
1,0,Images/Dog 12.jpg,1,,,0,1,1,0,0,0,0,0,,,,,,,,,,,,,0,4,4,4,,,,,,,,,314.9972357999941,315.4989338000014,,,,,,,,,,,,,,,,,,,,,,,,,,,,,,,,,,314.68424279999454,314.68424279999454,0.009830700000748038,1,1,0.28346149998833425,0.0,0.0,0,0,0,0,0,0,0,0,0,0,0,0.307931399991503,,,,,,,,,,,,,,,,,,,,001,A,2022-10-21_18h57.52.159,psychopy,2022.2.4,59.56128349262603,
1,0,Images/Lion 1.jpg,1,,,0,1,1,0,0,0,0,0,,,,,,,,,,,,,0,5,5,2,,,,,,,,,315.79710070000147,316.29720549998456,,,,,,,,,,,,,,,,,,,,,,,,,,,,,,,,,,315.4989338000014,315.4989338000014,0.0058048999926541,1,1,0.2686467999883462,0.0,0.0,0,0,0,0,0,0,0,0,0,0,0,0.292018799984362,,,,,,,,,,,,,,,,,,,,001,A,2022-10-21_18h57.52.159,psychopy,2022.2.4,59.56128349262603,
1,0,Images/Monkey 1.jpg,1,,,0,1,1,0,0,0,0,0,,,,,,,,,,,,,0,6,6,3,,,,,,,,,316.51364950000425,317.0139169000031,,,,,,,,,,,,,,,,,,,,,,,,,,,,,,,,,,316.29720549998456,316.29720549998456,0.003648699988843873,1,1,0.1983399000018835,0.0,0.0,0,0,0,0,0,0,0,0,0,0,0,0.21093960001599044,,,,,,,,,,,,,,,,,,,,001,A,2022-10-21_18h57.52.159,psychopy,2022.2.4,59.56128349262603,
1,0,Images/Sidewalk 3.jpg,2,,,0,1,1,0,0,0,0,0,,,,,,,,,,,,,0,7,7,8,,,,,,,,,317.38065539998934,317.8820095999981,,,,,,,,,,,,,,,,,,,,,,,,,,,,,,,,,,317.0139169000031,317.0139169000031,0.004553200007649139,1,0,0.3376403999864124,0.0,0.0,0,0,0,0,0,0,0,0,0,0,0,0.3615431000071112,,,,,,,,,,,,,,,,,,,,001,A,2022-10-21_18h57.52.159,psychopy,2022.2.4,59.56128349262603,
1,0,Images/Office supplies 4.jpg,2,,,0,1,1,0,0,0,0,0,,,,,,,,,,,,,0,8,8,7,,,,,,,,,318.18014709997806,318.68025289999787,,,,,,,,,,,,,,,,,,,,,,,,,,,,,,,,,,317.8820095999981,317.8820095999981,0.003364099975442514,1,0,0.27827839998644777,0.0,0.0,0,0,0,0,0,0,0,0,0,0,0,0.29234690000885166,,,,,,,,,,,,,,,,,,,,001,A,2022-10-21_18h57.52.159,psychopy,2022.2.4,59.56128349262603,
1,0,Images/Money 1.jpg,2,,,0,1,1,0,0,0,0,0,,,,,,,,,,,,,0,9,9,6,,,,,,,,,318.9966176000016,319.4974975999794,,,,,,,,,,,,,,,,,,,,,,,,,,,,,,,,,,318.68025289999787,318.68025289999787,0.004606000002240762,1,0,0.2945737999980338,0.0,0.0,0,0,0,0,0,0,0,0,0,0,0,0.31141339999157935,,,,,,,,,,,,,,,,,,,,001,A,2022-10-21_18h57.52.159,psychopy,2022.2.4,59.56128349262603,
1,0,Images/Fire 7.jpg,2,1.7007,0.9501201046146629,0,1,1,0,0,0,0,0,,,,,,,,,,,,,,,,,0,0,0,60,,,,,320.9798353999795,321.48215110000456,,,,,,,,,,,,,,,,,,,,,,,,,,,,,,,,,,,,,,,,,,,,,,,,,,,,,,319.4974975999794,319.4974975999794,space,0.957934900012333,320.4974556999805,320.4974556999805,320.4974556999805,1,0,0.45428619999438524,None,,,,,,,,,001,A,2022-10-21_18h57.52.159,psychopy,2022.2.4,59.56128349262603,
1,0,Images/Soldiers 7.jpg,1,2.5465,0.7939157675664149,0,1,1,0,0,0,0,0,,,,,,,,,,,,,,,,,0,1,1,62,,,,,321.6806271999958,322.1799653999915,,,,,,,,,,,,,,,,,,,,,,,,,,,,,,,,,,,,,,,,,,,,,,,,,,,,,,,,,,321.48215110000456,321.48215110000456,321.48215110000456,1,1,0.17409099999349564,None,,,,,,,,,001,A,2022-10-21_18h57.52.159,psychopy,2022.2.4,59.56128349262603,
1,0,Images/Snake 4.jpg,1,2.4159,0.1794277880411247,0,1,1,0,0,0,0,0,,,,,,,,,,,,,,,,,0,2,2,28,,,,,322.44725080000353,322.9475662999903,,,,,,,,,,,,,,,,,,,,,,,,,,,,,,,,,,,,,,,,,,,,,,,,,,,,,,,,,,322.1799653999915,322.1799653999915,322.1799653999915,1,1,0.23586929999873973,None,,,,,,,,,001,A,2022-10-21_18h57.52.159,psychopy,2022.2.4,59.56128349262603,
1,0,Images/Nature 1.jpg,2,6.1726,0.7504641747893187,0,1,1,0,0,0,0,0,,,,,,,,,,,,,,,,,0,3,3,17,,,,,323.19683909998275,,,,,,,,,,,,,,,,,,,,,,,,,,,,,,,,,,,,,,,,,,,,,,,,,,,,,,,,,,,322.9475662999903,322.9475662999903,322.9475662999903,1,0,0.22076349999406375,None,,,,,,,,,001,A,2022-10-21_18h57.52.159,psychopy,2022.2.4,59.56128349262603,
1,0,Images/Couple 8.jpg,1,5.7678,0.9440175279065489,0,1,1,0,0,0,0,0,,,,,,,,,,,,,,,,,0,4,4,48,,,,,323.8968072999851,324.40043059998425,,,,,,,,,,,,,,,,,,,,,,,,,,,,,,,,,,,,,,,,,,,,,,,,,,,,,,,,,,323.7005465999828,323.7005465999828,323.7005465999828,1,1,0.17070519999833778,None,,,,,,,,,001,A,2022-10-21_18h57.52.159,psychopy,2022.2.4,59.56128349262603,
1,0,Images/Police 5.jpg,1,2.4345,0.850994140315495,0,1,1,0,0,0,0,0,,,,,,,,,,,,,,,,,0,5,5,63,,,,,324.6642658999772,325.16568769997684,,,,,,,,,,,,,,,,,,,,,,,,,,,,,,,,,,,,,,,,,,,,,,,,,,,,,,,,,,324.40043059998425,324.40043059998425,324.40043059998425,1,1,0.23174429999198765,None,,,,,,,,,001,A,2022-10-21_18h57.52.159,psychopy,2022.2.4,59.56128349262603,
1,0,Images/Galaxy 2.jpg,2,5.7867,0.871390129257127,0,1,1,0,0,0,0,0,,,,,,,,,,,,,,,,,0,6,6,51,,,,,325.41400910000084,325.915892399993,,,,,,,,,,,,,,,,,,,,,,,,,,,,,,,,,,,,,,,,,,,,,,,,,,,,,,,,,,325.16568769997684,325.16568769997684,325.16568769997684,1,0,0.226901199988788,None,,,,,,,,,001,A,2022-10-21_18h57.52.159,psychopy,2022.2.4,59.56128349262603,
1,0,Images/Lake 2.jpg,2,6.3635,0.012122517432576752,0,1,1,0,0,0,0,0,,,,,,,,,,,,,,,,,0,7,7,46,,,,,326.19711749997805,326.6983886999951,,,,,,,,,,,,,,,,,,,,,,,,,,,,,,,,,,,,,,,,,,,,,,,,,,,,,,,,,,325.915892399993,325.915892399993,325.915892399993,1,0,0.25194309998187236,None,,,,,,,,,001,A,2022-10-21_18h57.52.159,psychopy,2022.2.4,59.56128349262603,
1,0,Images/Mother 1.jpg,1,6.0784,0.9132979139036188,0,1,1,0,0,0,0,0,,,,,,,,,,,,,,,,,0,8,8,24,,,,,326.8638016000041,327.3647825999942,,,,,,,,,,,,,,,,,,,,,,,,,,,,,,,,,,,,,,,,,,,,,,,,,,,,,,,,,,326.6983886999951,326.6983886999951,326.6983886999951,1,1,0.1411221999733243,None,,,,,,,,,001,A,2022-10-21_18h57.52.159,psychopy,2022.2.4,59.56128349262603,
1,0,Images/Mother 5.jpg,1,5.9438,0.9122496176418544,0,1,1,0,0,0,0,0,,,,,,,,,,,,,,,,,0,9,9,74,,,,,327.6139280999778,328.11425449998933,,,,,,,,,,,,,,,,,,,,,,,,,,,,,,,,,,,,,,,,,,,,,,,,,,,,,,,,,,327.3647825999942,327.3647825999942,327.3647825999942,1,1,0.226790799992159,None,,,,,,,,,001,A,2022-10-21_18h57.52.159,psychopy,2022.2.4,59.56128349262603,
1,0,Images/Tornado 4.jpg,2,2.7192,0.04515441392123898,0,1,1,0,0,0,0,0,,,,,,,,,,,,,,,,,0,10,10,2,,,,,328.3644166000013,328.86345889998483,,,,,,,,,,,,,,,,,,,,,,,,,,,,,,,,,,,,,,,,,,,,,,,,,,,,,,,,,,328.11425449998933,328.11425449998933,328.11425449998933,1,0,0.22970500000519678,None,,,,,,,,,001,A,2022-10-21_18h57.52.159,psychopy,2022.2.4,59.56128349262603,
1,0,Images/Tornado 1.jpg,2,2.1274,0.9673555153821882,0,1,1,0,0,0,0,0,,,,,,,,,,,,,,,,,0,11,11,36,,,,,329.09713219999685,329.5987146999978,,,,,,,,,,,,,,,,,,,,,,,,,,,,,,,,,,,,,,,,,,,,,,,,,,,,,,,,,,328.86345889998483,328.86345889998483,328.86345889998483,1,0,0.21695370000088587,None,,,,,,,,,001,A,2022-10-21_18h57.52.159,psychopy,2022.2.4,59.56128349262603,
1,0,Images/Dog 18.jpg,1,6.1614,0.7399603693185757,0,1,1,0,0,0,0,0,,,,,,,,,,,,,,,,,0,12,12,35,,,,,329.8634348999767,330.36369529998046,,,,,,,,,,,,,,,,,,,,,,,,,,,,,,,,,,,,,,,,,,,,,,,,,,,,,,,,,,329.5987146999978,329.5987146999978,329.5987146999978,1,1,0.23373529998934828,None,,,,,,,,,001,A,2022-10-21_18h57.52.159,psychopy,2022.2.4,59.56128349262603,
1,0,Images/Frustrated pose 1.jpg,1,2.3937,0.7929639094339582,0,1,1,0,0,0,0,0,,,,,,,,,,,,,,,,,0,13,13,3,,,,,330.596567200002,331.0999621999799,,,,,,,,,,,,,,,,,,,,,,,,,,,,,,,,,,,,,,,,,,,,,,,,,,,,,,,,,,330.36369529998046,330.36369529998046,330.36369529998046,1,1,0.2120842000003904,None,,,,,,,,,001,A,2022-10-21_18h57.52.159,psychopy,2022.2.4,59.56128349262603,
1,0,Images/Scared face 3.jpg,1,3.0377,0.39989359561204807,0,1,1,0,0,0,0,0,,,,,,,,,,,,,,,,,0,14,14,5,,,,,331.38016689999495,331.8824154000031,,,,,,,,,,,,,,,,,,,,,,,,,,,,,,,,,,,,,,,,,,,,,,,,,,,,,,,,,,331.0999621999799,331.0999621999799,331.0999621999799,1,1,0.2511629000073299,None,,,,,,,,,001,A,2022-10-21_18h57.52.159,psychopy,2022.2.4,59.56128349262603,
1,0,Images/Horse 1.jpg,1,5.9469,0.9714181382810801,0,1,1,0,0,0,0,0,,,,,,,,,,,,,,,,,0,15,15,75,,,,,332.1800014000037,332.68042419999256,,,,,,,,,,,,,,,,,,,,,,,,,,,,,,,,,,,,,,,,,,,,,,,,,,,,,,,,,,331.8824154000031,331.8824154000031,331.8824154000031,1,1,0.2763856000092346,None,,,,,,,,,001,A,2022-10-21_18h57.52.159,psychopy,2022.2.4,59.56128349262603,
1,0,Images/Intensity 1.jpg,1,2.8252,0.013798226426593896,0,1,1,0,0,0,0,0,,,,,,,,,,,,,,,,,0,16,16,76,,,,,332.9636416999856,333.4644350000017,,,,,,,,,,,,,,,,,,,,,,,,,,,,,,,,,,,,,,,,,,,,,,,,,,,,,,,,,,332.68042419999256,332.68042419999256,332.68042419999256,1,1,0.2550280000141356,None,,,,,,,,,001,A,2022-10-21_18h57.52.159,psychopy,2022.2.4,59.56128349262603,
1,0,Images/Dead bodies 2.jpg,1,1.2275,0.7641621579010838,0,1,1,0,0,0,0,0,,,,,,,,,,,,,,,,,0,17,17,53,,,,,333.74731399997836,334.2494108999963,,,,,,,,,,,,,,,,,,,,,,,,,,,,,,,,,,,,,,,,,,,,,,,,,,,,,,,,,,333.4644350000017,333.4644350000017,333.4644350000017,1,1,0.2631739999924321,None,,,,,,,,,001,A,2022-10-21_18h57.52.159,psychopy,2022.2.4,59.56128349262603,
1,0,Images/Sidewalk 6.jpg,2,2.7978,0.6901193111063584,0,1,1,0,0,0,0,0,,,,,,,,,,,,,,,,,0,18,18,79,,,,,334.93070539998007,335.43152409998584,,,,,,,,,,,,,,,,,,,,,,,,,,,,,,,,,,,,,,,,,,,,,,,,,,,,,,,,,,334.2494108999963,334.2494108999963,334.2494108999963,1,0,0.6538217999914195,None,,,,,,,,,001,A,2022-10-21_18h57.52.159,psychopy,2022.2.4,59.56128349262603,
1,0,Images/Bloody knife 1.jpg,2,1.8704,0.40700126922211854,0,1,1,0,0,0,0,0,,,,,,,,,,,,,,,,,0,19,19,23,,,,,335.9309828999976,336.4462498999783,,,,,,,,,,,,,,,,,,,,,,,,,,,,,,,,,,,,,,,,,,,,,,,,,,,,,,,,,,335.43152409998584,335.43152409998584,335.43152409998584,1,0,0.4722751000081189,None,,,,,,,,,001,A,2022-10-21_18h57.52.159,psychopy,2022.2.4,59.56128349262603,
1,0,Images/Weapon 1.jpg,2,2.8209,0.6541081478461332,0,1,1,0,0,0,0,0,,,,,,,,,,,,,,,,,0,20,20,16,,,,,336.78047729999525,337.28084110000054,,,,,,,,,,,,,,,,,,,,,,,,,,,,,,,,,,,,,,,,,,,,,,,,,,,,,,,,,,336.4462498999783,336.4462498999783,336.4462498999783,1,0,0.30570570001145825,None,,,,,,,,,001,A,2022-10-21_18h57.52.159,psychopy,2022.2.4,59.56128349262603,
1,0,Images/Hangover 1.jpg,1,2.3921,0.5142622623412806,0,1,1,0,0,0,0,0,,,,,,,,,,,,,,,,,0,21,21,45,,,,,337.63048100000015,338.1320802999835,,,,,,,,,,,,,,,,,,,,,,,,,,,,,,,,,,,,,,,,,,,,,,,,,,,,,,,,,,337.28084110000054,337.28084110000054,337.28084110000054,1,1,0.31796220000251196,None,,,,,,,,,001,A,2022-10-21_18h57.52.159,psychopy,2022.2.4,59.56128349262603,
1,0,Images/Elephant 1.jpg,1,5.8272,0.8577314539099176,0,1,1,0,0,0,0,0,,,,,,,,,,,,,,,,,0,22,22,40,,,,,338.54729839999345,339.05060699998285,,,,,,,,,,,,,,,,,,,,,,,,,,,,,,,,,,,,,,,,,,,,,,,,,,,,,,,,,,338.1320802999835,338.1320802999835,338.1320802999835,1,1,0.39643249998334795,None,,,,,,,,,001,A,2022-10-21_18h57.52.159,psychopy,2022.2.4,59.56128349262603,
1,0,Images/Massage 2.jpg,1,5.7288,0.09629380336666227,0,1,1,0,0,0,0,0,,,,,,,,,,,,,,,,,0,23,23,72,,,,,339.63055400000303,340.13681669998914,,,,,,,,,,,,,,,,,,,,,,,,,,,,,,,,,,,,,,,,,,,,,,,,,,,,,,,,,,339.05060699998285,339.05060699998285,339.05060699998285,1,1,0.5482082999951672,None,,,,,,,,,001,A,2022-10-21_18h57.52.159,psychopy,2022.2.4,59.56128349262603,
1,0,Images/Frustrated pose 5.jpg,1,2.481,0.28553188401789653,0,1,1,0,0,0,0,0,,,,,,,,,,,,,,,,,0,24,24,10,,,,,340.4306961999973,340.93020659999456,,,,,,,,,,,,,,,,,,,,,,,,,,,,,,,,,,,,,,,,,,,,,,,,,,,,,,,,,,340.13681669998914,340.13681669998914,340.13681669998914,1,1,0.2620522999786772,None,,,,,,,,,001,A,2022-10-21_18h57.52.159,psychopy,2022.2.4,59.56128349262603,
1,0,Images/Cold 8.jpg,2,5.5742,0.37572133397548513,0,1,1,0,0,0,0,0,,,,,,,,,,,,,,,,,0,25,25,30,,,,,341.28071269998327,341.78243120000116,,,,,,,,,,,,,,,,,,,,,,,,,,,,,,,,,,,,,,,,,,,,,,,,,,,,,,,,,,340.93020659999456,340.93020659999456,340.93020659999456,1,0,0.33292630000505596,None,,,,,,,,,001,A,2022-10-21_18h57.52.159,psychopy,2022.2.4,59.56128349262603,
1,0,Images/Birthday 3.jpg,2,5.5506,0.43820828115997645,0,1,1,0,0,0,0,0,,,,,,,,,,,,,,,,,0,26,26,61,,,,,342.1638598999998,342.66536949999863,,,,,,,,,,,,,,,,,,,,,,,,,,,,,,,,,,,,,,,,,,,,,,,,,,,,,,,,,,341.78243120000116,341.78243120000116,341.78243120000116,1,0,0.3617268000089098,None,,,,,,,,,001,A,2022-10-21_18h57.52.159,psychopy,2022.2.4,59.56128349262603,
1,0,Images/Injury 1.jpg,1,1.9865,0.2889058122637327,0,1,1,0,0,0,0,0,,,,,,,,,,,,,,,,,0,27,27,13,,,,,343.680019899999,,,,,,,,,,,,,,,,,,,,,,,,,,,,,,,,,,,,,,,,,,,,,,,,,,,,,,,,,,,342.66536949999863,342.66536949999863,342.66536949999863,None,0,,None,,,,,,,,,001,A,2022-10-21_18h57.52.159,psychopy,2022.2.4,59.56128349262603,
1,0,Images/Wedding 2.jpg,1,5.7601,0.3581969197952043,0,1,1,0,0,0,0,0,,,,,,,,,,,,,,,,,0,28,28,37,,,,,344.64711170000373,345.1502762000018,,,,,,,,,,,,,,,,,,,,,,,,,,,,,,,,,,,,,,,,,,,,,,,,,,,,,,,,,,344.1805498999893,344.1805498999893,344.1805498999893,1,1,0.450197099999059,None,,,,,,,,,001,A,2022-10-21_18h57.52.159,psychopy,2022.2.4,59.56128349262603,
1,0,Images/Baby 6.jpg,1,6.0604,0.26349201258450206,0,1,1,0,0,0,0,0,,,,,,,,,,,,,,,,,0,29,29,65,,,,,345.54728179998347,346.0467587999883,,,,,,,,,,,,,,,,,,,,,,,,,,,,,,,,,,,,,,,,,,,,,,,,,,,,,,,,,,345.1502762000018,345.1502762000018,345.1502762000018,1,1,0.36857149997376837,None,,,,,,,,,001,A,2022-10-21_18h57.52.159,psychopy,2022.2.4,59.56128349262603,
1,0,Images/Lake 3.jpg,2,5.9732,0.8722939171423078,0,1,1,0,0,0,0,0,,,,,,,,,,,,,,,,,0,30,30,22,,,,,346.73008389997995,347.23046989997965,,,,,,,,,,,,,,,,,,,,,,,,,,,,,,,,,,,,,,,,,,,,,,,,,,,,,,,,,,346.0467587999883,346.0467587999883,346.0467587999883,1,0,0.6651097999711055,None,,,,,,,,,001,A,2022-10-21_18h57.52.159,psychopy,2022.2.4,59.56128349262603,
1,0,Images/Galaxy 4.jpg,2,5.4342,0.26067261265936803,0,1,1,0,0,0,0,0,,,,,,,,,,,,,,,,,0,31,31,18,,,,,347.6640325000044,348.1635498999967,,,,,,,,,,,,,,,,,,,,,,,,,,,,,,,,,,,,,,,,,,,,,,,,,,,,,,,,,,347.23046989997965,347.23046989997965,347.23046989997965,1,0,0.40953400000580586,None,,,,,,,,,001,A,2022-10-21_18h57.52.159,psychopy,2022.2.4,59.56128349262603,
1,0,Images/Fireworks 2.jpg,2,6.277,0.9574516434771356,0,1,1,0,0,0,0,0,,,,,,,,,,,,,,,,,0,32,32,21,,,,,348.5144764999859,349.013647499989,,,,,,,,,,,,,,,,,,,,,,,,,,,,,,,,,,,,,,,,,,,,,,,,,,,,,,,,,,348.1635498999967,348.1635498999967,348.1635498999967,1,0,0.33161829999880865,None,,,,,,,,,001,A,2022-10-21_18h57.52.159,psychopy,2022.2.4,59.56128349262603,
1,0,Images/Sad pose 4.jpg,1,2.8282,0.528378645398541,0,1,1,0,0,0,0,0,,,,,,,,,,,,,,,,,0,33,33,26,,,,,349.43033699999796,349.9307640999905,,,,,,,,,,,,,,,,,,,,,,,,,,,,,,,,,,,,,,,,,,,,,,,,,,,,,,,,,,349.013647499989,349.013647499989,349.013647499989,1,1,0.3859107999887783,None,,,,,,,,,001,A,2022-10-21_18h57.52.159,psychopy,2022.2.4,59.56128349262603,
1,0,Images/Flowers 9.jpg,2,5.9383,0.22049600562800176,0,1,1,0,0,0,0,0,,,,,,,,,,,,,,,,,0,34,34,56,,,,,350.3973032999784,350.8968018000014,,,,,,,,,,,,,,,,,,,,,,,,,,,,,,,,,,,,,,,,,,,,,,,,,,,,,,,,,,349.9307640999905,349.9307640999905,349.9307640999905,1,0,0.43614619999425486,None,,,,,,,,,001,A,2022-10-21_18h57.52.159,psychopy,2022.2.4,59.56128349262603,
1,0,Images/Toilet 4.jpg,2,2.4986,0.9878271272508732,0,1,1,0,0,0,0,0,,,,,,,,,,,,,,,,,0,35,35,67,,,,,351.3973580999882,351.90147089998936,,,,,,,,,,,,,,,,,,,,,,,,,,,,,,,,,,,,,,,,,,,,,,,,,,,,,,,,,,350.8968018000014,350.8968018000014,350.8968018000014,1,0,0.4793521999963559,None,,,,,,,,,001,A,2022-10-21_18h57.52.159,psychopy,2022.2.4,59.56128349262603,
1,0,Images/Fireworks 3.jpg,2,6.0651,0.4589846415575002,0,1,1,0,0,0,0,0,,,,,,,,,,,,,,,,,0,36,36,47,,,,,352.1639887999918,352.6633571999846,,,,,,,,,,,,,,,,,,,,,,,,,,,,,,,,,,,,,,,,,,,,,,,,,,,,,,,,,,351.90147089998936,351.90147089998936,351.90147089998936,1,0,0.23492700001224875,None,,,,,,,,,001,A,2022-10-21_18h57.52.159,psychopy,2022.2.4,59.56128349262603,
1,0,Images/Gun 6.jpg,2,2.9016,0.31960683806099544,0,1,1,0,0,0,0,0,,,,,,,,,,,,,,,,,0,37,37,42,,,,,352.980378999986,353.48270870000124,,,,,,,,,,,,,,,,,,,,,,,,,,,,,,,,,,,,,,,,,,,,,,,,,,,,,,,,,,352.6633571999846,352.6633571999846,352.6633571999846,1,0,0.29597669999930076,None,,,,,,,,,001,A,2022-10-21_18h57.52.159,psychopy,2022.2.4,59.56128349262603,
1,0,Images/Rainbow 1.jpg,2,6.2286,0.6276019931043489,0,1,1,0,0,0,0,0,,,,,,,,,,,,,,,,,0,38,38,8,,,,,353.8806820999889,354.3815728999907,,,,,,,,,,,,,,,,,,,,,,,,,,,,,,,,,,,,,,,,,,,,,,,,,,,,,,,,,,353.48270870000124,353.48270870000124,353.48270870000124,1,0,0.3658341999980621,None,,,,,,,,,001,A,2022-10-21_18h57.52.159,psychopy,2022.2.4,59.56128349262603,
1,0,Images/Bird 3.jpg,1,6.0495,0.7060375059060603,0,1,1,0,0,0,0,0,,,,,,,,,,,,,,,,,0,39,39,69,,,,,354.9972033999802,355.4973537999904,,,,,,,,,,,,,,,,,,,,,,,,,,,,,,,,,,,,,,,,,,,,,,,,,,,,,,,,,,354.3815728999907,354.3815728999907,354.3815728999907,1,1,0.5938238000089768,None,,,,,,,,,001,A,2022-10-21_18h57.52.159,psychopy,2022.2.4,59.56128349262603,
1,0,Images/Frustrated pose 2.jpg,1,2.6481,0.07843080009801606,0,1,1,0,0,0,0,0,,,,,,,,,,,,,,,,,0,40,40,49,,,,,355.59714899997925,356.100761699985,,,,,,,,,,,,,,,,,,,,,,,,,,,,,,,,,,,,,,,,,,,,,,,,,,,,,,,,,,355.4973537999904,355.4973537999904,355.4973537999904,1,1,0.0694249999942258,None,,,,,,,,,001,A,2022-10-21_18h57.52.159,psychopy,2022.2.4,59.56128349262603,
1,0,Images/Flowers 1.jpg,2,5.8142,0.27529383981721267,0,1,1,0,0,0,0,0,,,,,,,,,,,,,,,,,0,41,41,43,,,,,356.5973435000051,357.0973391000007,,,,,,,,,,,,,,,,,,,,,,,,,,,,,,,,,,,,,,,,,,,,,,,,,,,,,,,,,,356.100761699985,356.100761699985,356.100761699985,1,0,0.46601299999747425,None,,,,,,,,,001,A,2022-10-21_18h57.52.159,psychopy,2022.2.4,59.56128349262603,
1,0,Images/Sleepy pose 1.jpg,1,2.603,0.014083813044789784,0,1,1,0,0,0,0,0,,,,,,,,,,,,,,,,,0,42,42,20,,,,,357.44713719998254,357.9492194999766,,,,,,,,,,,,,,,,,,,,,,,,,,,,,,,,,,,,,,,,,,,,,,,,,,,,,,,,,,357.0973391000007,357.0973391000007,357.0973391000007,1,1,0.3334090000134893,None,,,,,,,,,001,A,2022-10-21_18h57.52.159,psychopy,2022.2.4,59.56128349262603,
1,0,Images/Bridge 1.jpg,2,5.9383,0.13339846379913733,0,1,1,0,0,0,0,0,,,,,,,,,,,,,,,,,0,43,43,50,,,,,358.46350439998787,358.9634415000037,,,,,,,,,,,,,,,,,,,,,,,,,,,,,,,,,,,,,,,,,,,,,,,,,,,,,,,,,,357.9492194999766,357.9492194999766,357.9492194999766,1,0,0.4822275000042282,None,,,,,,,,,001,A,2022-10-21_18h57.52.159,psychopy,2022.2.4,59.56128349262603,
1,0,Images/Gun 10.jpg,2,2.5934,0.8397215898320197,0,1,1,0,0,0,0,0,,,,,,,,,,,,,,,,,0,44,44,6,,,,,359.5641392999969,360.0671029999794,,,,,,,,,,,,,,,,,,,,,,,,,,,,,,,,,,,,,,,,,,,,,,,,,,,,,,,,,,358.9634415000037,358.9634415000037,358.9634415000037,1,0,0.5801758000161499,None,,,,,,,,,001,A,2022-10-21_18h57.52.159,psychopy,2022.2.4,59.56128349262603,
1,0,Images/Neonazi 1.jpg,1,2.0577,0.4286272595660632,0,1,1,0,0,0,0,0,,,,,,,,,,,,,,,,,0,45,45,66,,,,,360.26339149998967,,,,,,,,,,,,,,,,,,,,,,,,,,,,,,,,,,,,,,,,,,,,,,,,,,,,,,,,,,,360.0671029999794,360.0671029999794,360.0671029999794,1,1,0.17987140000332147,None,,,,,,,,,001,A,2022-10-21_18h57.52.159,psychopy,2022.2.4,59.56128349262603,
1,0,Images/Destruction 10.jpg,2,2.0682,0.33267433135769797,0,1,1,0,0,0,0,0,,,,,,,,,,,,,,,,,0,46,46,9,,,,,361.48074339999584,361.98033199997735,,,,,,,,,,,,,,,,,,,,,,,,,,,,,,,,,,,,,,,,,,,,,,,,,,,,,,,,,,360.76373979999335,360.76373979999335,360.76373979999335,1,0,0.6846029000007547,None,,,,,,,,,001,A,2022-10-21_18h57.52.159,psychopy,2022.2.4,59.56128349262603,
1,0,Images/Yarn 1.jpg,2,2.5645,0.1548831621525235,0,1,1,0,0,0,0,0,,,,,,,,,,,,,,,,,0,47,47,68,,,,,362.39739239998744,362.898154399998,,,,,,,,,,,,,,,,,,,,,,,,,,,,,,,,,,,,,,,,,,,,,,,,,,,,,,,,,,361.98033199997735,361.98033199997735,361.98033199997735,1,0,0.3870928999967873,None,,,,,,,,,001,A,2022-10-21_18h57.52.159,psychopy,2022.2.4,59.56128349262603,
1,0,Images/Sad pose 1.jpg,1,2.8801,0.9379640962640362,0,1,1,0,0,0,0,0,,,,,,,,,,,,,,,,,0,48,48,71,,,,,363.1144006999966,363.6134669999883,,,,,,,,,,,,,,,,,,,,,,,,,,,,,,,,,,,,,,,,,,,,,,,,,,,,,,,,,,362.898154399998,362.898154399998,362.898154399998,1,1,0.18895080001675524,None,,,,,,,,,001,A,2022-10-21_18h57.52.159,psychopy,2022.2.4,59.56128349262603,
1,0,Images/Cat 5.jpg,1,6.1842,0.2993849771344371,0,1,1,0,0,0,0,0,,,,,,,,,,,,,,,,,0,49,49,4,,,,,363.7804310999927,364.28157279998413,,,,,,,,,,,,,,,,,,,,,,,,,,,,,,,,,,,,,,,,,,,,,,,,,,,,,,,,,,363.6134669999883,363.6134669999883,363.6134669999883,1,1,0.14622469997266307,None,,,,,,,,,001,A,2022-10-21_18h57.52.159,psychopy,2022.2.4,59.56128349262603,
1,0,Images/Jail 5.jpg,2,3.0599,0.07486446158300541,0,1,1,0,0,0,0,0,,,,,,,,,,,,,,,,,0,50,50,7,,,,,364.4806772999873,364.98096119999536,,,,,,,,,,,,,,,,,,,,,,,,,,,,,,,,,,,,,,,,,,,,,,,,,,,,,,,,,,364.28157279998413,364.28157279998413,364.28157279998413,1,0,0.18270320000010543,None,,,,,,,,,001,A,2022-10-21_18h57.52.159,psychopy,2022.2.4,59.56128349262603,
1,0,Images/Miserable pose 1.jpg,1,2.579,0.41254038389301795,0,1,1,0,0,0,0,0,,,,,,,,,,,,,,,,,0,51,51,73,,,,,365.2806432999787,365.7958208999771,,,,,,,,,,,,,,,,,,,,,,,,,,,,,,,,,,,,,,,,,,,,,,,,,,,,,,,,,,364.98096119999536,364.98096119999536,364.98096119999536,1,1,0.27499710000120103,None,,,,,,,,,001,A,2022-10-21_18h57.52.159,psychopy,2022.2.4,59.56128349262603,
1,0,Images/Car Accident 3.jpg,2,2.7945,0.7732278009857427,0,1,1,0,0,0,0,0,,,,,,,,,,,,,,,,,0,52,52,58,,,,,366.0970192999812,366.59741909999866,,,,,,,,,,,,,,,,,,,,,,,,,,,,,,,,,,,,,,,,,,,,,,,,,,,,,,,,,,365.7958208999771,365.7958208999771,365.7958208999771,1,0,0.2830791999876965,None,,,,,,,,,001,A,2022-10-21_18h57.52.159,psychopy,2022.2.4,59.56128349262603,
1,0,Images/Miserable pose 4.jpg,1,2.5702,0.4458257869062262,0,1,1,0,0,0,0,0,,,,,,,,,,,,,,,,,0,53,53,32,,,,,366.93056519998936,367.4320804000017,,,,,,,,,,,,,,,,,,,,,,,,,,,,,,,,,,,,,,,,,,,,,,,,,,,,,,,,,,366.59741909999866,366.59741909999866,366.59741909999866,1,1,0.31424979999428615,None,,,,,,,,,001,A,2022-10-21_18h57.52.159,psychopy,2022.2.4,59.56128349262603,
1,0,Images/Cat 4.jpg,1,5.798,0.06333628944787684,0,1,1,0,0,0,0,0,,,,,,,,,,,,,,,,,0,54,54,38,,,,,367.99716289999196,368.4967092000006,,,,,,,,,,,,,,,,,,,,,,,,,,,,,,,,,,,,,,,,,,,,,,,,,,,,,,,,,,367.4320804000017,367.4320804000017,367.4320804000017,1,1,0.544068100018194,None,,,,,,,,,001,A,2022-10-21_18h57.52.159,psychopy,2022.2.4,59.56128349262603,
1,0,Images/Excited face 2.jpg,1,5.8009,0.7619008012508488,0,1,1,0,0,0,0,0,,,,,,,,,,,,,,,,,0,55,55,34,,,,,369.0806364000018,369.5812146999815,,,,,,,,,,,,,,,,,,,,,,,,,,,,,,,,,,,,,,,,,,,,,,,,,,,,,,,,,,368.4967092000006,368.4967092000006,368.4967092000006,1,1,0.5667395999771543,None,,,,,,,,,001,A,2022-10-21_18h57.52.159,psychopy,2022.2.4,59.56128349262603,
1,0,Images/Lake 10.jpg,2,6.125,0.9853027217264094,0,1,1,0,0,0,0,0,,,,,,,,,,,,,,,,,0,56,56,44,,,,,370.5810653999797,371.08007719999296,,,,,,,,,,,,,,,,,,,,,,,,,,,,,,,,,,,,,,,,,,,,,,,,,,,,,,,,,,369.5812146999815,369.5812146999815,369.5812146999815,None,0,,None,370.5810653999797,370.5810653999797,370.5810653999797,,,,,,001,A,2022-10-21_18h57.52.159,psychopy,2022.2.4,59.56128349262603,
1,0,Images/Dancing 7.jpg,1,5.8813,0.6297471826735491,0,1,1,0,0,0,0,0,,,,,,,,,,,,,,,,,0,57,57,33,,,,,371.3470186999766,371.84975979998126,,,,,,,,,,,,,,,,,,,,,,,,,,,,,,,,,,,,,,,,,,,,,,,,,,,,,,,,,,371.08007719999296,371.08007719999296,371.08007719999296,1,1,0.23948489999747835,None,,,,,,,,,001,A,2022-10-21_18h57.52.159,psychopy,2022.2.4,59.56128349262603,
1,0,Images/Lake 12.jpg,2,6.4088,0.5730295514381429,0,1,1,0,0,0,0,0,,,,,,,,,,,,,,,,,0,58,58,57,,,,,372.4641228999826,372.9634846999834,,,,,,,,,,,,,,,,,,,,,,,,,,,,,,,,,,,,,,,,,,,,,,,,,,,,,,,,,,371.84975979998126,371.84975979998126,371.84975979998126,1,0,0.5900100000144448,None,,,,,,,,,001,A,2022-10-21_18h57.52.159,psychopy,2022.2.4,59.56128349262603,
1,0,Images/Dog 19.jpg,1,5.9814,0.7804812252252693,0,1,1,0,0,0,0,0,,,,,,,,,,,,,,,,,0,59,59,11,,,,,373.29688079998596,373.7972177999909,,,,,,,,,,,,,,,,,,,,,,,,,,,,,,,,,,,,,,,,,,,,,,,,,,,,,,,,,,372.9634846999834,372.9634846999834,372.9634846999834,1,1,0.30737489997409284,None,,,,,,,,,001,A,2022-10-21_18h57.52.159,psychopy,2022.2.4,59.56128349262603,
1,0,Images/Beach 2.jpg,2,6.2944,0.9767776457796615,0,1,1,0,0,0,0,0,,,,,,,,,,,,,,,,,0,60,60,39,,,,,374.19737549999263,374.69669270000304,,,,,,,,,,,,,,,,,,,,,,,,,,,,,,,,,,,,,,,,,,,,,,,,,,,,,,,,,,373.7972177999909,373.7972177999909,373.7972177999909,1,0,0.37087650000466965,None,,,,,,,,,001,A,2022-10-21_18h57.52.159,psychopy,2022.2.4,59.56128349262603,
1,0,Images/Jail 2.jpg,2,1.9691,0.03156789597965182,0,1,1,0,0,0,0,0,,,,,,,,,,,,,,,,,0,61,61,64,,,,,375.09717520000413,375.5989845999866,,,,,,,,,,,,,,,,,,,,,,,,,,,,,,,,,,,,,,,,,,,,,,,,,,,,,,,,,,374.69669270000304,374.69669270000304,374.69669270000304,1,0,0.3826038999832235,None,,,,,,,,,001,A,2022-10-21_18h57.52.159,psychopy,2022.2.4,59.56128349262603,
1,0,Images/Picnic 1.jpg,1,6.0998,0.013197503905397312,0,1,1,0,0,0,0,0,,,,,,,,,,,,,,,,,0,62,62,70,,,,,375.6639118999883,376.1655752999941,,,,,,,,,,,,,,,,,,,,,,,,,,,,,,,,,,,,,,,,,,,,,,,,,,,,,,,,,,375.5989845999866,375.5989845999866,375.5989845999866,1,1,0.04109690000768751,None,,,,,,,,,001,A,2022-10-21_18h57.52.159,psychopy,2022.2.4,59.56128349262603,
1,0,Images/Wedding 6.jpg,1,6.0481,0.4733426449134829,0,1,1,0,0,0,0,0,,,,,,,,,,,,,,,,,0,63,63,31,,,,,376.38018219999503,,,,,,,,,,,,,,,,,,,,,,,,,,,,,,,,,,,,,,,,,,,,,,,,,,,,,,,,,,,376.1655752999941,376.1655752999941,376.1655752999941,1,1,0.1950508000154514,None,,,,,,,,,001,A,2022-10-21_18h57.52.159,psychopy,2022.2.4,59.56128349262603,
1,0,Images/Explosion 4.jpg,2,2.4912,0.7741769511985449,0,1,1,0,0,0,0,0,,,,,,,,,,,,,,,,,0,64,64,78,,,,,377.11383349998505,377.61558139999397,,,,,,,,,,,,,,,,,,,,,,,,,,,,,,,,,,,,,,,,,,,,,,,,,,,,,,,,,,376.89605609999853,376.89605609999853,376.89605609999853,1,0,0.19952379999449477,None,,,,,,,,,001,A,2022-10-21_18h57.52.159,psychopy,2022.2.4,59.56128349262603,
1,0,Images/Dog 2.jpg,1,5.9348,0.1385016610476738,0,1,1,0,0,0,0,0,,,,,,,,,,,,,,,,,0,65,65,54,,,,,377.8807361999934,378.3800614999782,,,,,,,,,,,,,,,,,,,,,,,,,,,,,,,,,,,,,,,,,,,,,,,,,,,,,,,,,,377.61558139999397,377.61558139999397,377.61558139999397,1,1,0.23987339998711832,None,,,,,,,,,001,A,2022-10-21_18h57.52.159,psychopy,2022.2.4,59.56128349262603,
1,0,Images/Explosion 1.jpg,2,2.7061,0.09556197736042626,0,1,1,0,0,0,0,0,,,,,,,,,,,,,,,,,0,66,66,77,,,,,378.66401320000296,379.16529989999253,,,,,,,,,,,,,,,,,,,,,,,,,,,,,,,,,,,,,,,,,,,,,,,,,,,,,,,,,,378.3800614999782,378.3800614999782,378.3800614999782,1,0,0.26024009997490793,None,,,,,,,,,001,A,2022-10-21_18h57.52.159,psychopy,2022.2.4,59.56128349262603,
1,0,Images/War 8.jpg,1,1.7473,0.10290094730872323,0,1,1,0,0,0,0,0,,,,,,,,,,,,,,,,,0,67,67,12,,,,,379.5472298999957,380.0505931999942,,,,,,,,,,,,,,,,,,,,,,,,,,,,,,,,,,,,,,,,,,,,,,,,,,,,,,,,,,379.16529989999253,379.16529989999253,379.16529989999253,1,1,0.3539187000133097,None,,,,,,,,,001,A,2022-10-21_18h57.52.159,psychopy,2022.2.4,59.56128349262603,
1,0,Images/Dirt 1.jpg,2,1.6168,0.6695803900912131,0,1,1,0,0,0,0,0,,,,,,,,,,,,,,,,,0,68,68,0,,,,,380.46395279999706,380.96444310000516,,,,,,,,,,,,,,,,,,,,,,,,,,,,,,,,,,,,,,,,,,,,,,,,,,,,,,,,,,380.0505931999942,380.0505931999942,380.0505931999942,1,0,0.3964777000073809,None,,,,,,,,,001,A,2022-10-21_18h57.52.159,psychopy,2022.2.4,59.56128349262603,
1,0,Images/Wedding 4.jpg,2,5.8256,0.09293607626529377,0,1,1,0,0,0,0,0,,,,,,,,,,,,,,,,,0,69,69,19,,,,,381.297118699993,381.7987524999771,,,,,,,,,,,,,,,,,,,,,,,,,,,,,,,,,,,,,,,,,,,,,,,,,,,,,,,,,,380.96444310000516,380.96444310000516,380.96444310000516,1,0,0.3072356999909971,None,,,,,,,,,001,A,2022-10-21_18h57.52.159,psychopy,2022.2.4,59.56128349262603,
1,0,Images/Destruction 5.jpg,2,2.1143,0.6225236117358539,0,1,1,0,0,0,0,0,,,,,,,,,,,,,,,,,0,70,70,1,,,,,382.1804792000039,382.68078309998964,,,,,,,,,,,,,,,,,,,,,,,,,,,,,,,,,,,,,,,,,,,,,,,,,,,,,,,,,,381.7987524999771,381.7987524999771,381.7987524999771,1,0,0.36048120001214556,None,,,,,,,,,001,A,2022-10-21_18h57.52.159,psychopy,2022.2.4,59.56128349262603,
1,0,Images/Flowers 7.jpg,2,5.7452,0.4154522113949739,0,1,1,0,0,0,0,0,,,,,,,,,,,,,,,,,0,71,71,14,,,,,383.1469197999977,383.66261349999695,,,,,,,,,,,,,,,,,,,,,,,,,,,,,,,,,,,,,,,,,,,,,,,,,,,,,,,,,,382.68078309998964,382.68078309998964,382.68078309998964,1,0,0.4390349999885075,None,,,,,,,,,001,A,2022-10-21_18h57.52.159,psychopy,2022.2.4,59.56128349262603,
1,0,Images/Flowers 1.jpg,2,5.8142,0.5470930681193592,0,1,1,0,0,0,0,0,,,,,,,,,,,,,,,,,0,72,72,25,,,,,384.0969550999871,384.59847649998846,,,,,,,,,,,,,,,,,,,,,,,,,,,,,,,,,,,,,,,,,,,,,,,,,,,,,,,,,,383.66261349999695,383.66261349999695,383.66261349999695,1,0,0.41665139998076484,None,,,,,,,,,001,A,2022-10-21_18h57.52.159,psychopy,2022.2.4,59.56128349262603,
1,0,Images/Angry face 3.jpg,1,2.5188,0.21834471638364283,0,1,1,0,0,0,0,0,,,,,,,,,,,,,,,,,0,73,73,27,,,,,384.9641608999809,385.4641055999964,,,,,,,,,,,,,,,,,,,,,,,,,,,,,,,,,,,,,,,,,,,,,,,,,,,,,,,,,,384.59847649998846,384.59847649998846,384.59847649998846,1,1,0.33754909998970106,None,,,,,,,,,001,A,2022-10-21_18h57.52.159,psychopy,2022.2.4,59.56128349262603,
1,0,Images/Baby 5.jpg,1,6.1553,0.31383362377021096,0,1,1,0,0,0,0,0,,,,,,,,,,,,,,,,,0,74,74,29,,,,,385.9638817999803,386.46404669998446,,,,,,,,,,,,,,,,,,,,,,,,,,,,,,,,,,,,,,,,,,,,,,,,,,,,,,,,,,385.4641055999964,385.4641055999964,385.4641055999964,1,1,0.47991099997307174,None,,,,,,,,,001,A,2022-10-21_18h57.52.159,psychopy,2022.2.4,59.56128349262603,
1,0,Images/Bird 1.jpg,1,5.9051,0.992895090151792,0,1,1,0,0,0,0,0,,,,,,,,,,,,,,,,,0,75,75,15,,,,,387.31466329999967,387.8140024000022,,,,,,,,,,,,,,,,,,,,,,,,,,,,,,,,,,,,,,,,,,,,,,,,,,,,,,,,,,386.46404669998446,386.46404669998446,386.46404669998446,1,1,0.8237155999813695,None,,,,,,,,,001,A,2022-10-21_18h57.52.159,psychopy,2022.2.4,59.56128349262603,
1,0,Images/Garbage dump 3.jpg,2,2.0219,0.5707894112816823,0,1,1,0,0,0,0,0,,,,,,,,,,,,,,,,,0,76,76,52,,,,,388.06380509998417,388.5644893999852,,,,,,,,,,,,,,,,,,,,,,,,,,,,,,,,,,,,,,,,,,,,,,,,,,,,,,,,,,387.8140024000022,387.8140024000022,387.8140024000022,1,0,0.23341939999954775,None,,,,,,,,,001,A,2022-10-21_18h57.52.159,psychopy,2022.2.4,59.56128349262603,
1,0,Images/Flowers 6.jpg,2,5.9556,0.12977858521545838,0,1,1,0,0,0,0,0,,,,,,,,,,,,,,,,,0,77,77,41,,,,,389.0638540999789,389.5634704999975,,,,,,,,,,,,,,,,,,,,,,,,,,,,,,,,,,,,,,,,,,,,,,,,,,,,,,,,,,388.5644893999852,388.5644893999852,388.5644893999852,1,0,0.46800559997791424,None,,,,,,,,,001,A,2022-10-21_18h57.52.159,psychopy,2022.2.4,59.56128349262603,
1,0,Images/Miserable pose 5.jpg,1,2.9754,0.5707540209244515,0,1,1,0,0,0,0,0,,,,,,,,,,,,,,,,,0,78,78,59,,,,,389.8804952999926,390.3815006999939,,,,,,,,,,,,,,,,,,,,,,,,,,,,,,,,,,,,,,,,,,,,,,,,,,,,,,,,,,389.5634704999975,389.5634704999975,389.5634704999975,1,1,0.29262870000093244,None,,,,,,,,,001,A,2022-10-21_18h57.52.159,psychopy,2022.2.4,59.56128349262603,
1,0,Images/Gun 4.jpg,2,2.9016,0.1467485923469446,0,1,1,0,0,0,0,0,,,,,,,,,,,,,,,,,0,79,79,55,,,,,390.563430899987,391.0635276999965,,,,,,,,,,,,,,,,,,,,,,,,,,,,,,,,,,,,,,,,,,,,,,,,,,,,,,,,,,390.3815006999939,390.3815006999939,390.3815006999939,1,0,0.15398150001419708,None,,,,,,,,,001,A,2022-10-21_18h57.52.159,psychopy,2022.2.4,59.56128349262603,
1,0,,,,,0,1,1,0,0,0,0,0,,,,,,,,,,,,,,,,,,,,,,,,,,,,,,,,,,,,,,,,,,,,,,,,,,,,,,,,,,,,,,,,,,,,,,,,,,,,,,,,,,,,,,,,,,,,,,,,,,,001,A,2022-10-21_18h57.52.159,psychopy,2022.2.4,59.56128349262603,
,,,,,,,,,,,,,,,,,,,,,,,,,,,,,,,,,,,,,,,,,,,,,,,,,,,,,,,,,,,,,,,,,,,,,,,,,,,,,,,,,,,,,,,,,,,,,,,,,,,,,,,,,,,391.0635276999965,391.0635276999965,space,2.1210313999908976,,001,A,2022-10-21_18h57.52.159,psychopy,2022.2.4,59.56128349262603,
