nRepsTask1,nRepsTask2,ImageFile,AnimateInanimate,ValenceScore,Rand,controlTaskOrder.thisRepN,controlTaskOrder.thisTrialN,controlTaskOrder.thisN,controlTaskOrder.thisIndex,part1.thisRepN,part1.thisTrialN,part1.thisN,part1.thisIndex,trialsStudyImages.thisRepN,trialsStudyImages.thisTrialN,trialsStudyImages.thisN,trialsStudyImages.thisIndex,trialsOriginal.thisRepN,trialsOriginal.thisTrialN,trialsOriginal.thisN,trialsOriginal.thisIndex,key_resp.started,WelcomeText.started,key_resp.keys,key_resp.rt,text_2.started,text_2.stopped,key_resp_2.started,ConsentText.started,key_resp_2.keys,key_resp_2.rt,key_resp_3.started,InstructionText.started,key_resp_3.keys,key_resp_3.rt,key_resp_8.started,text_7.started,key_resp_8.keys,key_resp_8.rt,text_4.started,key_resp_4.started,key_resp_4.keys,key_resp_4.rt,image.started,key_resp_7.started,key_resp_7.keys,key_resp_7.corr,joystick.x,joystick.y,joystick.button_0,joystick.button_1,joystick.button_2,joystick.button_3,joystick.button_4,joystick.button_5,joystick.button_6,joystick.button_7,joystick.button_8,joystick.button_9,joystick.button_10,joystick.time,key_resp_7.rt,text_6.started,key_resp_6.started,key_resp_6.keys,key_resp_6.rt,image_2.started,key_resp_9.started,button_resp.started,key_resp_9.keys,key_resp_9.corr,button_resp.keys,joystick_4.x,joystick_4.y,joystick_4.button_0,joystick_4.button_1,joystick_4.button_2,joystick_4.button_3,joystick_4.button_4,joystick_4.button_5,joystick_4.button_6,joystick_4.button_7,joystick_4.button_8,joystick_4.button_9,joystick_4.button_10,joystick_4.time,key_resp_9.rt,image_2.stopped,key_resp_9.stopped,button_resp.stopped,participant,session,group,date,expName,psychopyVersion,frameRate,
,,,,,,,,,,,,,,,,,,,,,,8.94216159998905,8.94216159998905,space,1.4370101000240538,,,,,,,,,,,,,,,,,,,,,,,,,,,,,,,,,,,,,,,,,,,,,,,,,,,,,,,,,,,,,,,,,,,001,A,2022-10-21_19h43.47.102,psychopy,2022.2.4,60.00758496060822,
,,,,,,,,,,,,,,,,,,,,,,,,,,10.402303699986078,10.902403999993112,10.902403999993112,10.902403999993112,space,0.8515208000026178,,,,,,,,,,,,,,,,,,,,,,,,,,,,,,,,,,,,,,,,,,,,,,,,,,,,,,,,,,,,,001,A,2022-10-21_19h43.47.102,psychopy,2022.2.4,60.00758496060822,
,,,,,,,,,,,,,,,,,,,,,,,,,,11.785942999995314,12.286392999987584,,,,,12.286392999987584,12.286392999987584,space,0.38080089999129996,,,,,,,,,,,,,,,,,,,,,,,,,,,,,,,,,,,,,,,,,,,,,,,,,,,,,,,,,001,A,2022-10-21_19h43.47.102,psychopy,2022.2.4,60.00758496060822,
,,,,,,,,,,,,,,,,,,,,,,,,,,12.685869999986608,13.185866599989822,,,,,,,,,13.185866599989822,13.185866599989822,space,0.3123947000131011,,,,,,,,,,,,,,,,,,,,,,,,,,,,,,,,,,,,,,,,,,,,,,,,,,,,,001,A,2022-10-21_19h43.47.102,psychopy,2022.2.4,60.00758496060822,
1,0,Images/Monkey 1.jpg,1,,,0,0,0,0,0,0,0,0,0,0,0,3,,,,,,,,,15.352642699988792,,,,,,,,,,,,,,14.022572799993213,14.022572799993213,space,0.2920608000131324,14.363244200008921,14.363244200008921,None,0,0.0,0.0,0,0,0,0,0,0,0,0,0,0,0,6.537509299989324,,,,,,,,,,,,,,,,,,,,,,,,,,,,,,,001,A,2022-10-21_19h43.47.102,psychopy,2022.2.4,60.00758496060822,
1,0,Images/Lion 1.jpg,1,,,0,0,0,0,0,0,0,0,0,1,1,2,,,,,,,,,16.48588490000111,16.98568990000058,,,,,,,,,,,,,,,,,15.85289899999043,15.85289899999043,1,1,0.0,0.0,0,0,0,0,0,0,0,0,0,0,0,7.674008199974196,0.6139947000192478,,,,,,,,,,,,,,,,,,,,,,,,,,,,,,001,A,2022-10-21_19h43.47.102,psychopy,2022.2.4,60.00758496060822,
1,0,Images/Goat 1.jpg,1,,,0,0,0,0,0,0,0,0,0,2,2,0,,,,,,,,,17.202539199992316,17.702008299995214,,,,,,,,,,,,,,,,,16.98568990000058,16.98568990000058,1,1,0.0,0.0,0,0,0,0,0,0,0,0,0,0,0,8.389295699977083,0.20002309998380952,,,,,,,,,,,,,,,,,,,,,,,,,,,,,,001,A,2022-10-21_19h43.47.102,psychopy,2022.2.4,60.00758496060822,
1,0,Images/Sidewalk 3.jpg,2,,,0,0,0,0,0,0,0,0,0,3,3,8,,,,,,,,,17.83615849999478,18.33986300000106,,,,,,,,,,,,,,,,,17.702008299995214,17.702008299995214,1,0,0.0,0.0,0,0,0,0,0,0,0,0,0,0,0,9.023341499996604,0.10922169999685138,,,,,,,,,,,,,,,,,,,,,,,,,,,,,,001,A,2022-10-21_19h43.47.102,psychopy,2022.2.4,60.00758496060822,
1,0,Images/Gun 5.jpg,2,,,0,0,0,0,0,0,0,0,0,4,4,5,,,,,,,,,19.085419699986232,19.58514819998527,,,,,,,,,,,,,,,,,18.33986300000106,18.33986300000106,2,1,0.0,0.0,0,0,0,0,0,0,0,0,0,0,0,10.272054199973354,0.7177938999957405,,,,,,,,,,,,,,,,,,,,,,,,,,,,,,001,A,2022-10-21_19h43.47.102,psychopy,2022.2.4,60.00758496060822,
1,0,Images/Office supplies 4.jpg,2,,,0,0,0,0,0,0,0,0,0,5,5,7,,,,,,,,,20.102023799991002,20.606084400002146,,,,,,,,,,,,,,,,,19.58514819998527,19.58514819998527,2,1,0.0,0.0,0,0,0,0,0,0,0,0,0,0,0,11.287188899994362,0.4981131000095047,,,,,,,,,,,,,,,,,,,,,,,,,,,,,,001,A,2022-10-21_19h43.47.102,psychopy,2022.2.4,60.00758496060822,
1,0,Images/Storage 1.jpg,2,,,0,0,0,0,0,0,0,0,0,6,6,9,,,,,,,,,21.168730699981097,21.684306599985575,,,,,,,,,,,,,,,,,20.606084400002146,20.606084400002146,2,1,0.0,0.0,0,0,0,0,0,0,0,0,0,0,0,12.353998199978378,0.5317016000044532,,,,,,,,,,,,,,,,,,,,,,,,,,,,,,001,A,2022-10-21_19h43.47.102,psychopy,2022.2.4,60.00758496060822,
1,0,Images/Happy face 2.jpg,1,,,0,0,0,0,0,0,0,0,0,7,7,1,,,,,,,,,22.103047699987656,22.60656069999095,,,,,,,,,,,,,,,,,21.684306599985575,21.684306599985575,1,1,0.0,0.0,0,0,0,0,0,0,0,0,0,0,0,13.287116199993761,0.38958719998481683,,,,,,,,,,,,,,,,,,,,,,,,,,,,,,001,A,2022-10-21_19h43.47.102,psychopy,2022.2.4,60.00758496060822,
1,0,Images/Money 1.jpg,2,,,0,0,0,0,0,0,0,0,0,8,8,6,,,,,,,,,23.16858199998387,23.668517199985217,,,,,,,,,,,,,,,,,22.60656069999095,22.60656069999095,2,1,0.0,0.0,0,0,0,0,0,0,0,0,0,0,0,14.353841399977682,0.5312592999835033,,,,,,,,,,,,,,,,,,,,,,,,,,,,,,001,A,2022-10-21_19h43.47.102,psychopy,2022.2.4,60.00758496060822,
1,0,Images/Dog 12.jpg,1,,,0,0,0,0,0,0,0,0,0,9,9,4,,,,,,,,,24.30242319998797,24.802074499981245,,,,,,,,,,,,,,,,,23.668517199985217,23.668517199985217,1,1,0.0,0.0,0,0,0,0,0,0,0,0,0,0,0,15.488802299980307,0.6143020000017714,,,,,,,,,,,,,,,,,,,,,,,,,,,,,,001,A,2022-10-21_19h43.47.102,psychopy,2022.2.4,60.00758496060822,
1,0,Images/Frustrated pose 1.jpg,1,2.3937,0.7929639094339582,0,0,0,0,0,0,0,0,,,,,0,0,0,3,,,,,26.60257499999716,,,,,,,,,,,,,,,,,,,,,,,,,,,,,,,,,,,,,24.802074499981245,24.802074499981245,space,0.7610699000069872,25.599637999985134,25.599637999985134,25.599637999985134,None,0,None,0.0,0.0,0,0,0,0,0,0,0,0,0,0,0,17.721374299988383,,,,,,001,A,2022-10-21_19h43.47.102,psychopy,2022.2.4,60.00758496060822,
1,0,Images/Garbage dump 3.jpg,2,2.0219,0.5707894112816823,0,0,0,0,0,0,0,0,,,,,0,1,1,52,,,,,27.68533340000431,28.187864499981515,,,,,,,,,,,,,,,,,,,,,,,,,,,,,,,,,,,,,,,,27.10412649999489,27.10412649999489,27.10412649999489,2,1,None,0.0,0.0,0,0,0,0,0,0,0,0,0,0,0,18.803615399985574,0.5622169999987818,,,,,001,A,2022-10-21_19h43.47.102,psychopy,2022.2.4,60.00758496060822,
1,0,Images/Galaxy 2.jpg,2,5.7867,0.871390129257127,0,0,0,0,0,0,0,0,,,,,0,2,2,51,,,,,28.718768999999156,29.21856039998238,,,,,,,,,,,,,,,,,,,,,,,,,,,,,,,,,,,,,,,,28.187864499981515,28.187864499981515,28.187864499981515,2,1,None,0.0,0.0,0,0,0,0,0,0,0,0,0,0,0,19.83686859998852,0.502221799979452,,,,,001,A,2022-10-21_19h43.47.102,psychopy,2022.2.4,60.00758496060822,
1,0,Images/Flowers 6.jpg,2,5.9556,0.12977858521545838,0,0,0,0,0,0,0,0,,,,,0,3,3,41,,,,,30.235786899982486,,,,,,,,,,,,,,,,,,,,,,,,,,,,,,,,,,,,,,,,,29.21856039998238,29.21856039998238,29.21856039998238,None,0,None,0.0,0.0,0,0,0,0,0,0,0,0,0,0,0,21.353479199984577,,30.21913559999666,30.21913559999666,30.21913559999666,,001,A,2022-10-21_19h43.47.102,psychopy,2022.2.4,60.00758496060822,
1,0,Images/Miserable pose 5.jpg,1,2.9754,0.5707540209244515,0,0,0,0,0,0,0,0,,,,,0,4,4,59,,,,,31.619111100008013,32.11863369998173,,,,,,,,,,,,,,,,,,,,,,,,,,,,,,,,,,,,,,,,30.735706799983745,30.735706799983745,30.735706799983745,1,1,None,0.0,0.0,0,0,0,0,0,0,0,0,0,0,0,22.73797689998173,0.8587802999827545,,,,,001,A,2022-10-21_19h43.47.102,psychopy,2022.2.4,60.00758496060822,
1,0,Images/Excited face 2.jpg,1,5.8009,0.7619008012508488,0,0,0,0,0,0,0,0,,,,,0,5,5,34,,,,,32.70211549999658,33.2023094999895,,,,,,,,,,,,,,,,,,,,,,,,,,,,,,,,,,,,,,,,32.11863369998173,32.11863369998173,32.11863369998173,1,1,None,0.0,0.0,0,0,0,0,0,0,0,0,0,0,0,23.820050599984825,0.5653235999925528,,,,,001,A,2022-10-21_19h43.47.102,psychopy,2022.2.4,60.00758496060822,
1,0,Images/Tornado 4.jpg,2,2.7192,0.04515441392123898,0,0,0,0,0,0,0,0,,,,,0,6,6,2,,,,,34.118500099983066,34.62125339999329,,,,,,,,,,,,,,,,,,,,,,,,,,,,,,,,,,,,,,,,33.2023094999895,33.2023094999895,33.2023094999895,1,0,None,0.0,0.0,0,0,0,0,0,0,0,0,0,0,0,25.239486799982842,0.8964551000099164,,,,,001,A,2022-10-21_19h43.47.102,psychopy,2022.2.4,60.00758496060822,
1,0,Images/War 8.jpg,1,1.7473,0.10290094730872323,0,0,0,0,0,0,0,0,,,,,0,7,7,12,,,,,35.10276879998855,35.60309240000788,,,,,,,,,,,,,,,,,,,,,,,,,,,,,,,,,,,,,,,,34.62125339999329,34.62125339999329,34.62125339999329,1,1,None,0.0,0.0,0,0,0,0,0,0,0,0,0,0,0,26.22267920000013,0.4540539000008721,,,,,001,A,2022-10-21_19h43.47.102,psychopy,2022.2.4,60.00758496060822,
1,0,Images/Nature 1.jpg,2,6.1726,0.7504641747893187,0,0,0,0,0,0,0,0,,,,,0,8,8,17,,,,,36.019087699998636,36.51896570000099,,,,,,,,,,,,,,,,,,,,,,,,,,,,,,,,,,,,,,,,35.60309240000788,35.60309240000788,35.60309240000788,2,1,None,0.0,0.0,0,0,0,0,0,0,0,0,0,0,0,27.138290599978063,0.3989294999919366,,,,,001,A,2022-10-21_19h43.47.102,psychopy,2022.2.4,60.00758496060822,
1,0,Images/Wedding 4.jpg,2,5.8256,0.09293607626529377,0,0,0,0,0,0,0,0,,,,,0,9,9,19,,,,,37.00309749998269,37.50852420000592,,,,,,,,,,,,,,,,,,,,,,,,,,,,,,,,,,,,,,,,36.51896570000099,36.51896570000099,36.51896570000099,2,1,None,0.0,0.0,0,0,0,0,0,0,0,0,0,0,0,28.123533099977067,0.4593479000031948,,,,,001,A,2022-10-21_19h43.47.102,psychopy,2022.2.4,60.00758496060822,
1,0,Images/Lake 12.jpg,2,6.4088,0.5730295514381429,0,0,0,0,0,0,0,0,,,,,0,10,10,57,,,,,37.902702799998224,38.402530199993635,,,,,,,,,,,,,,,,,,,,,,,,,,,,,,,,,,,,,,,,37.50852420000592,37.50852420000592,37.50852420000592,2,1,None,0.0,0.0,0,0,0,0,0,0,0,0,0,0,0,29.022684700001264,0.3745195000083186,,,,,001,A,2022-10-21_19h43.47.102,psychopy,2022.2.4,60.00758496060822,
1,0,Images/Beach 2.jpg,2,6.2944,0.9767776457796615,0,0,0,0,0,0,0,0,,,,,0,11,11,39,,,,,38.83580989998882,39.33692420000443,,,,,,,,,,,,,,,,,,,,,,,,,,,,,,,,,,,,,,,,38.402530199993635,38.402530199993635,38.402530199993635,2,1,None,0.0,0.0,0,0,0,0,0,0,0,0,0,0,0,29.957544699980645,0.41568660002667457,,,,,001,A,2022-10-21_19h43.47.102,psychopy,2022.2.4,60.00758496060822,
1,0,Images/Injury 1.jpg,1,1.9865,0.2889058122637327,0,0,0,0,0,0,0,0,,,,,0,12,12,13,,,,,40.06875279999804,40.571920599992154,,,,,,,,,,,,,,,,,,,,,,,,,,,,,,,,,,,,,,,,39.33692420000443,39.33692420000443,39.33692420000443,1,1,None,0.0,0.0,0,0,0,0,0,0,0,0,0,0,0,31.188703399995575,0.7142372999805957,,,,,001,A,2022-10-21_19h43.47.102,psychopy,2022.2.4,60.00758496060822,
1,0,Images/Sidewalk 6.jpg,2,2.7978,0.6901193111063584,0,0,0,0,0,0,0,0,,,,,0,13,13,79,,,,,41.13568949999171,41.638057899981504,,,,,,,,,,,,,,,,,,,,,,,,,,,,,,,,,,,,,,,,40.571920599992154,40.571920599992154,40.571920599992154,2,1,None,0.0,0.0,0,0,0,0,0,0,0,0,0,0,0,32.25641969998833,0.543353000015486,,,,,001,A,2022-10-21_19h43.47.102,psychopy,2022.2.4,60.00758496060822,
1,0,Images/Yarn 1.jpg,2,2.5645,0.1548831621525235,0,0,0,0,0,0,0,0,,,,,0,14,14,68,,,,,42.1687513999932,42.670424199983245,,,,,,,,,,,,,,,,,,,,,,,,,,,,,,,,,,,,,,,,41.638057899981504,41.638057899981504,41.638057899981504,2,1,None,0.0,0.0,0,0,0,0,0,0,0,0,0,0,0,33.289155099977506,0.5001292000233661,,,,,001,A,2022-10-21_19h43.47.102,psychopy,2022.2.4,60.00758496060822,
1,0,Images/Cold 8.jpg,2,5.5742,0.37572133397548513,0,0,0,0,0,0,0,0,,,,,0,15,15,30,,,,,43.185284100007266,43.68622579998919,,,,,,,,,,,,,,,,,,,,,,,,,,,,,,,,,,,,,,,,42.670424199983245,42.670424199983245,42.670424199983245,2,1,None,0.0,0.0,0,0,0,0,0,0,0,0,0,0,0,34.30336439999519,0.4841236000065692,,,,,001,A,2022-10-21_19h43.47.102,psychopy,2022.2.4,60.00758496060822,
1,0,Images/Massage 2.jpg,1,5.7288,0.09629380336666227,0,0,0,0,0,0,0,0,,,,,0,16,16,72,,,,,44.31940020000911,44.81868100000429,,,,,,,,,,,,,,,,,,,,,,,,,,,,,,,,,,,,,,,,43.68622579998919,43.68622579998919,43.68622579998919,1,1,None,0.0,0.0,0,0,0,0,0,0,0,0,0,0,0,35.4390446000034,0.6043885000108276,,,,,001,A,2022-10-21_19h43.47.102,psychopy,2022.2.4,60.00758496060822,
1,0,Images/Tornado 1.jpg,2,2.1274,0.9673555153821882,0,0,0,0,0,0,0,0,,,,,0,17,17,36,,,,,45.402613299986115,45.90509149999707,,,,,,,,,,,,,,,,,,,,,,,,,,,,,,,,,,,,,,,,44.81868100000429,44.81868100000429,44.81868100000429,2,1,None,0.0,0.0,0,0,0,0,0,0,0,0,0,0,0,36.52179969998542,0.5611424999951851,,,,,001,A,2022-10-21_19h43.47.102,psychopy,2022.2.4,60.00758496060822,
1,0,Images/Horse 1.jpg,1,5.9469,0.9714181382810801,0,0,0,0,0,0,0,0,,,,,0,18,18,75,,,,,46.48598559998209,46.98543349999818,,,,,,,,,,,,,,,,,,,,,,,,,,,,,,,,,,,,,,,,45.90509149999707,45.90509149999707,45.90509149999707,1,1,None,0.0,0.0,0,0,0,0,0,0,0,0,0,0,0,37.60561279999092,0.5629004999937024,,,,,001,A,2022-10-21_19h43.47.102,psychopy,2022.2.4,60.00758496060822,
1,0,Images/Frustrated pose 5.jpg,1,2.481,0.28553188401789653,0,0,0,0,0,0,0,0,,,,,0,19,19,10,,,,,47.6191995999834,48.12420029999339,,,,,,,,,,,,,,,,,,,,,,,,,,,,,,,,,,,,,,,,46.98543349999818,46.98543349999818,46.98543349999818,1,1,None,0.0,0.0,0,0,0,0,0,0,0,0,0,0,0,38.738722099980805,0.6020834000082687,,,,,001,A,2022-10-21_19h43.47.102,psychopy,2022.2.4,60.00758496060822,
1,0,Images/Snake 4.jpg,1,2.4159,0.1794277880411247,0,0,0,0,0,0,0,0,,,,,0,20,20,28,,,,,48.71861499999068,49.21864169999026,,,,,,,,,,,,,,,,,,,,,,,,,,,,,,,,,,,,,,,,48.12420029999339,48.12420029999339,48.12420029999339,1,1,None,0.0,0.0,0,0,0,0,0,0,0,0,0,0,0,39.83681209999486,0.573471999989124,,,,,001,A,2022-10-21_19h43.47.102,psychopy,2022.2.4,60.00758496060822,
1,0,Images/Dog 2.jpg,1,5.9348,0.1385016610476738,0,0,0,0,0,0,0,0,,,,,0,21,21,54,,,,,49.78545599998324,50.28541819998645,,,,,,,,,,,,,,,,,,,,,,,,,,,,,,,,,,,,,,,,49.21864169999026,49.21864169999026,49.21864169999026,1,1,None,0.0,0.0,0,0,0,0,0,0,0,0,0,0,0,40.903705299977446,0.5438908999785781,,,,,001,A,2022-10-21_19h43.47.102,psychopy,2022.2.4,60.00758496060822,
1,0,Images/Toilet 4.jpg,2,2.4986,0.9878271272508732,0,0,0,0,0,0,0,0,,,,,0,22,22,67,,,,,50.93575679999776,51.43810689999373,,,,,,,,,,,,,,,,,,,,,,,,,,,,,,,,,,,,,,,,50.28541819998645,50.28541819998645,50.28541819998645,2,1,None,0.0,0.0,0,0,0,0,0,0,0,0,0,0,0,42.054707299976144,0.6223384999902919,,,,,001,A,2022-10-21_19h43.47.102,psychopy,2022.2.4,60.00758496060822,
1,0,Images/Flowers 1.jpg,2,5.8142,0.27529383981721267,0,0,0,0,0,0,0,0,,,,,0,23,23,43,,,,,52.15344059999916,52.65519259998109,,,,,,,,,,,,,,,,,,,,,,,,,,,,,,,,,,,,,,,,51.43810689999373,51.43810689999373,51.43810689999373,2,1,None,0.0,0.0,0,0,0,0,0,0,0,0,0,0,0,43.27369319999707,0.6845042000059038,,,,,001,A,2022-10-21_19h43.47.102,psychopy,2022.2.4,60.00758496060822,
1,0,Images/Gun 10.jpg,2,2.5934,0.8397215898320197,0,0,0,0,0,0,0,0,,,,,0,24,24,6,,,,,53.16877200000454,53.67069539998192,,,,,,,,,,,,,,,,,,,,,,,,,,,,,,,,,,,,,,,,52.65519259998109,52.65519259998109,52.65519259998109,1,0,None,0.0,0.0,0,0,0,0,0,0,0,0,0,0,0,44.28876969998237,0.4844114999868907,,,,,001,A,2022-10-21_19h43.47.102,psychopy,2022.2.4,60.00758496060822,
1,0,Images/Fireworks 3.jpg,2,6.0651,0.4589846415575002,0,0,0,0,0,0,0,0,,,,,0,25,25,47,,,,,54.20201770000858,54.701974900002824,,,,,,,,,,,,,,,,,,,,,,,,,,,,,,,,,,,,,,,,53.67069539998192,53.67069539998192,53.67069539998192,2,1,None,0.0,0.0,0,0,0,0,0,0,0,0,0,0,0,45.32027259998722,0.5149780999927316,,,,,001,A,2022-10-21_19h43.47.102,psychopy,2022.2.4,60.00758496060822,
1,0,Images/Sad pose 1.jpg,1,2.8801,0.9379640962640362,0,0,0,0,0,0,0,0,,,,,0,26,26,71,,,,,55.452121899987105,55.95190320000984,,,,,,,,,,,,,,,,,,,,,,,,,,,,,,,,,,,,,,,,54.701974900002824,54.701974900002824,54.701974900002824,1,1,None,0.0,0.0,0,0,0,0,0,0,0,0,0,0,0,46.570111399982125,0.7245493999798782,,,,,001,A,2022-10-21_19h43.47.102,psychopy,2022.2.4,60.00758496060822,
1,0,Images/Explosion 4.jpg,2,2.4912,0.7741769511985449,0,0,0,0,0,0,0,0,,,,,0,27,27,78,,,,,56.48606950000976,56.98580130000482,,,,,,,,,,,,,,,,,,,,,,,,,,,,,,,,,,,,,,,,55.95190320000984,55.95190320000984,55.95190320000984,2,1,None,0.0,0.0,0,0,0,0,0,0,0,0,0,0,0,47.605845699989004,0.5162738999933936,,,,,001,A,2022-10-21_19h43.47.102,psychopy,2022.2.4,60.00758496060822,
1,0,Images/Dog 19.jpg,1,5.9814,0.7804812252252693,0,0,0,0,0,0,0,0,,,,,0,28,28,11,,,,,57.485459199990146,58.001229399989825,,,,,,,,,,,,,,,,,,,,,,,,,,,,,,,,,,,,,,,,56.98580130000482,56.98580130000482,56.98580130000482,2,0,None,0.0,0.0,0,0,0,0,0,0,0,0,0,0,0,48.60499679998611,0.481371300003957,,,,,001,A,2022-10-21_19h43.47.102,psychopy,2022.2.4,60.00758496060822,
1,0,Images/Flowers 9.jpg,2,5.9383,0.22049600562800176,0,0,0,0,0,0,0,0,,,,,0,29,29,56,,,,,58.45271949999733,58.96789780000108,,,,,,,,,,,,,,,,,,,,,,,,,,,,,,,,,,,,,,,,58.001229399989825,58.001229399989825,58.001229399989825,2,1,None,0.0,0.0,0,0,0,0,0,0,0,0,0,0,0,49.57250929999282,0.42462370000430383,,,,,001,A,2022-10-21_19h43.47.102,psychopy,2022.2.4,60.00758496060822,
1,0,Images/Wedding 2.jpg,1,5.7601,0.3581969197952043,0,0,0,0,0,0,0,0,,,,,0,30,30,37,,,,,59.51886499999091,60.01872089999961,,,,,,,,,,,,,,,,,,,,,,,,,,,,,,,,,,,,,,,,58.96789780000108,58.96789780000108,58.96789780000108,1,1,None,0.0,0.0,0,0,0,0,0,0,0,0,0,0,0,50.63652089997777,0.529849499987904,,,,,001,A,2022-10-21_19h43.47.102,psychopy,2022.2.4,60.00758496060822,
1,0,Images/Bloody knife 1.jpg,2,1.8704,0.40700126922211854,0,0,0,0,0,0,0,0,,,,,0,31,31,23,,,,,60.63603170000715,61.138498199987225,,,,,,,,,,,,,,,,,,,,,,,,,,,,,,,,,,,,,,,,60.01872089999961,60.01872089999961,60.01872089999961,2,1,None,0.0,0.0,0,0,0,0,0,0,0,0,0,0,0,51.755487699992955,0.5911991000175476,,,,,001,A,2022-10-21_19h43.47.102,psychopy,2022.2.4,60.00758496060822,
1,0,Images/Mother 1.jpg,1,6.0784,0.9132979139036188,0,0,0,0,0,0,0,0,,,,,0,32,32,24,,,,,61.81924429998617,62.318688700004714,,,,,,,,,,,,,,,,,,,,,,,,,,,,,,,,,,,,,,,,61.138498199987225,61.138498199987225,61.138498199987225,1,1,None,0.0,0.0,0,0,0,0,0,0,0,0,0,0,0,52.93874769998365,0.6643916000030003,,,,,001,A,2022-10-21_19h43.47.102,psychopy,2022.2.4,60.00758496060822,
1,0,Images/Dancing 7.jpg,1,5.8813,0.6297471826735491,0,0,0,0,0,0,0,0,,,,,0,33,33,33,,,,,62.869396800000686,63.369421999988845,,,,,,,,,,,,,,,,,,,,,,,,,,,,,,,,,,,,,,,,62.318688700004714,62.318688700004714,62.318688700004714,1,1,None,0.0,0.0,0,0,0,0,0,0,0,0,0,0,0,53.989906499977224,0.5322028999798931,,,,,001,A,2022-10-21_19h43.47.102,psychopy,2022.2.4,60.00758496060822,
1,0,Images/Baby 5.jpg,1,6.1553,0.31383362377021096,0,0,0,0,0,0,0,0,,,,,0,34,34,29,,,,,63.90304060000926,64.40221420000307,,,,,,,,,,,,,,,,,,,,,,,,,,,,,,,,,,,,,,,,63.369421999988845,63.369421999988845,63.369421999988845,1,1,None,0.0,0.0,0,0,0,0,0,0,0,0,0,0,0,55.03088099998422,0.489674099982949,,,,,001,A,2022-10-21_19h43.47.102,psychopy,2022.2.4,60.00758496060822,
1,0,Images/Elephant 1.jpg,1,5.8272,0.8577314539099176,0,0,0,0,0,0,0,0,,,,,0,35,35,40,,,,,65.10297219999484,65.60522389999824,,,,,,,,,,,,,,,,,,,,,,,,,,,,,,,,,,,,,,,,64.40221420000307,64.40221420000307,64.40221420000307,2,0,None,0.0,0.0,0,0,0,0,0,0,0,0,0,0,0,56.223301599995466,0.6806184999877587,,,,,001,A,2022-10-21_19h43.47.102,psychopy,2022.2.4,60.00758496060822,
1,0,Images/Baby 6.jpg,1,6.0604,0.26349201258450206,0,0,0,0,0,0,0,0,,,,,0,36,36,65,,,,,66.3190462999919,66.81971149999299,,,,,,,,,,,,,,,,,,,,,,,,,,,,,,,,,,,,,,,,65.60522389999824,65.60522389999824,65.60522389999824,1,1,None,0.0,0.0,0,0,0,0,0,0,0,0,0,0,0,57.437697599991225,0.6856247000105213,,,,,001,A,2022-10-21_19h43.47.102,psychopy,2022.2.4,60.00758496060822,
1,0,Images/Fire 7.jpg,2,1.7007,0.9501201046146629,0,0,0,0,0,0,0,0,,,,,0,37,37,60,,,,,67.58597379998537,68.08540750000975,,,,,,,,,,,,,,,,,,,,,,,,,,,,,,,,,,,,,,,,66.81971149999299,66.81971149999299,66.81971149999299,2,1,None,0.0,0.0,0,0,0,0,0,0,0,0,0,0,0,58.70551780000096,0.7428653999813832,,,,,001,A,2022-10-21_19h43.47.102,psychopy,2022.2.4,60.00758496060822,
1,0,Images/Lake 3.jpg,2,5.9732,0.8722939171423078,0,0,0,0,0,0,0,0,,,,,0,38,38,22,,,,,68.85279989999253,69.35217709999415,,,,,,,,,,,,,,,,,,,,,,,,,,,,,,,,,,,,,,,,68.08540750000975,68.08540750000975,68.08540750000975,2,1,None,0.0,0.0,0,0,0,0,0,0,0,0,0,0,0,59.972572999977274,0.7411051999952178,,,,,001,A,2022-10-21_19h43.47.102,psychopy,2022.2.4,60.00758496060822,
1,0,Images/Dirt 1.jpg,2,1.6168,0.6695803900912131,0,0,0,0,0,0,0,0,,,,,0,39,39,0,,,,,70.10286739998264,70.6027216000075,,,,,,,,,,,,,,,,,,,,,,,,,,,,,,,,,,,,,,,,69.35217709999415,69.35217709999415,69.35217709999415,2,1,None,0.0,0.0,0,0,0,0,0,0,0,0,0,0,0,61.22314799999003,0.7237325999885798,,,,,001,A,2022-10-21_19h43.47.102,psychopy,2022.2.4,60.00758496060822,
1,0,Images/Jail 5.jpg,2,3.0599,0.07486446158300541,0,0,0,0,0,0,0,0,,,,,0,40,40,7,,,,,71.20260359998792,71.70503599999938,,,,,,,,,,,,,,,,,,,,,,,,,,,,,,,,,,,,,,,,70.6027216000075,70.6027216000075,70.6027216000075,2,1,None,0.0,0.0,0,0,0,0,0,0,0,0,0,0,0,62.32172999999602,0.5682522999995854,,,,,001,A,2022-10-21_19h43.47.102,psychopy,2022.2.4,60.00758496060822,
1,0,Images/Flowers 7.jpg,2,5.7452,0.4154522113949739,0,0,0,0,0,0,0,0,,,,,0,41,41,14,,,,,72.38575200000196,72.88567329998477,,,,,,,,,,,,,,,,,,,,,,,,,,,,,,,,,,,,,,,,71.70503599999938,71.70503599999938,71.70503599999938,2,1,None,0.0,0.0,0,0,0,0,0,0,0,0,0,0,0,63.50447189999977,0.6486210000002757,,,,,001,A,2022-10-21_19h43.47.102,psychopy,2022.2.4,60.00758496060822,
1,0,Images/Couple 8.jpg,1,5.7678,0.9440175279065489,0,0,0,0,0,0,0,0,,,,,0,42,42,48,,,,,73.418731999991,73.92260109999916,,,,,,,,,,,,,,,,,,,,,,,,,,,,,,,,,,,,,,,,72.88567329998477,72.88567329998477,72.88567329998477,1,1,None,0.0,0.0,0,0,0,0,0,0,0,0,0,0,0,64.53672599999118,0.5160660999827087,,,,,001,A,2022-10-21_19h43.47.102,psychopy,2022.2.4,60.00758496060822,
1,0,Images/Lake 2.jpg,2,6.3635,0.012122517432576752,0,0,0,0,0,0,0,0,,,,,0,43,43,46,,,,,74.55261839999002,75.05210959998658,,,,,,,,,,,,,,,,,,,,,,,,,,,,,,,,,,,,,,,,73.92260109999916,73.92260109999916,73.92260109999916,2,1,None,0.0,0.0,0,0,0,0,0,0,0,0,0,0,0,65.67197629998554,0.6073011999833398,,,,,001,A,2022-10-21_19h43.47.102,psychopy,2022.2.4,60.00758496060822,
1,0,Images/Scared face 3.jpg,1,3.0377,0.39989359561204807,0,0,0,0,0,0,0,0,,,,,0,44,44,5,,,,,75.60319490000256,76.1059297999891,,,,,,,,,,,,,,,,,,,,,,,,,,,,,,,,,,,,,,,,75.05210959998658,75.05210959998658,75.05210959998658,1,1,None,0.0,0.0,0,0,0,0,0,0,0,0,0,0,0,66.71995400000014,0.5175591000006534,,,,,001,A,2022-10-21_19h43.47.102,psychopy,2022.2.4,60.00758496060822,
1,0,Images/Cat 5.jpg,1,6.1842,0.2993849771344371,0,0,0,0,0,0,0,0,,,,,0,45,45,4,,,,,76.83553579999716,77.3512056999898,,,,,,,,,,,,,,,,,,,,,,,,,,,,,,,,,,,,,,,,76.1059297999891,76.1059297999891,76.1059297999891,1,1,None,0.0,0.0,0,0,0,0,0,0,0,0,0,0,0,67.95332339999732,0.7048787000239827,,,,,001,A,2022-10-21_19h43.47.102,psychopy,2022.2.4,60.00758496060822,
1,0,Images/Picnic 1.jpg,1,6.0998,0.013197503905397312,0,0,0,0,0,0,0,0,,,,,0,46,46,70,,,,,78.1196643000003,78.61868839999079,,,,,,,,,,,,,,,,,,,,,,,,,,,,,,,,,,,,,,,,77.3512056999898,77.3512056999898,77.3512056999898,1,1,None,0.0,0.0,0,0,0,0,0,0,0,0,0,0,0,69.23950699999114,0.7468164000019897,,,,,001,A,2022-10-21_19h43.47.102,psychopy,2022.2.4,60.00758496060822,
1,0,Images/Fireworks 2.jpg,2,6.277,0.9574516434771356,0,0,0,0,0,0,0,0,,,,,0,47,47,21,,,,,79.21878719999222,79.71894359998987,,,,,,,,,,,,,,,,,,,,,,,,,,,,,,,,,,,,,,,,78.61868839999079,78.61868839999079,78.61868839999079,2,1,None,0.0,0.0,0,0,0,0,0,0,0,0,0,0,0,70.33664059999865,0.5681021999916993,,,,,001,A,2022-10-21_19h43.47.102,psychopy,2022.2.4,60.00758496060822,
1,0,Images/Bird 3.jpg,1,6.0495,0.7060375059060603,0,0,0,0,0,0,0,0,,,,,0,48,48,69,,,,,80.41930639999919,80.91859369998565,,,,,,,,,,,,,,,,,,,,,,,,,,,,,,,,,,,,,,,,79.71894359998987,79.71894359998987,79.71894359998987,1,1,None,0.0,0.0,0,0,0,0,0,0,0,0,0,0,0,71.53846929999418,0.6763763000199106,,,,,001,A,2022-10-21_19h43.47.102,psychopy,2022.2.4,60.00758496060822,
1,0,Images/Gun 6.jpg,2,2.9016,0.31960683806099544,0,0,0,0,0,0,0,0,,,,,0,49,49,42,,,,,81.38607039998169,81.88607799998135,,,,,,,,,,,,,,,,,,,,,,,,,,,,,,,,,,,,,,,,80.91859369998565,80.91859369998565,80.91859369998565,2,1,None,0.0,0.0,0,0,0,0,0,0,0,0,0,0,0,72.50569930000347,0.444383399997605,,,,,001,A,2022-10-21_19h43.47.102,psychopy,2022.2.4,60.00758496060822,
1,0,Images/Rainbow 1.jpg,2,6.2286,0.6276019931043489,0,0,0,0,0,0,0,0,,,,,0,50,50,8,,,,,82.65271850000136,83.15547890000744,,,,,,,,,,,,,,,,,,,,,,,,,,,,,,,,,,,,,,,,81.88607799998135,81.88607799998135,81.88607799998135,2,1,None,0.0,0.0,0,0,0,0,0,0,0,0,0,0,0,73.77224049999495,0.7486625000019558,,,,,001,A,2022-10-21_19h43.47.102,psychopy,2022.2.4,60.00758496060822,
1,0,Images/Galaxy 4.jpg,2,5.4342,0.26067261265936803,0,0,0,0,0,0,0,0,,,,,0,51,51,18,,,,,83.768705399998,84.26868639999884,,,,,,,,,,,,,,,,,,,,,,,,,,,,,,,,,,,,,,,,83.15547890000744,83.15547890000744,83.15547890000744,2,1,None,0.0,0.0,0,0,0,0,0,0,0,0,0,0,0,74.88698640000075,0.5909798000066075,,,,,001,A,2022-10-21_19h43.47.102,psychopy,2022.2.4,60.00758496060822,
1,0,Images/Mother 5.jpg,1,5.9438,0.9122496176418544,0,0,0,0,0,0,0,0,,,,,0,52,52,74,,,,,84.90265579998959,85.4021228000056,,,,,,,,,,,,,,,,,,,,,,,,,,,,,,,,,,,,,,,,84.26868639999884,84.26868639999884,84.26868639999884,1,1,None,0.0,0.0,0,0,0,0,0,0,0,0,0,0,0,76.02216459999909,0.6138965999998618,,,,,001,A,2022-10-21_19h43.47.102,psychopy,2022.2.4,60.00758496060822,
1,0,Images/Dead bodies 2.jpg,1,1.2275,0.7641621579010838,0,0,0,0,0,0,0,0,,,,,0,53,53,53,,,,,86.22010229999432,86.72161400000914,,,,,,,,,,,,,,,,,,,,,,,,,,,,,,,,,,,,,,,,85.4021228000056,85.4021228000056,85.4021228000056,1,1,None,0.0,0.0,0,0,0,0,0,0,0,0,0,0,0,77.34033289999934,0.7998620999860577,,,,,001,A,2022-10-21_19h43.47.102,psychopy,2022.2.4,60.00758496060822,
1,0,Images/Hangover 1.jpg,1,2.3921,0.5142622623412806,0,0,0,0,0,0,0,0,,,,,0,54,54,45,,,,,87.73618899998837,,,,,,,,,,,,,,,,,,,,,,,,,,,,,,,,,,,,,,,,,86.72161400000914,86.72161400000914,86.72161400000914,None,0,None,0.0,0.0,0,0,0,0,0,0,0,0,0,0,0,78.85418659998686,,,,,,001,A,2022-10-21_19h43.47.102,psychopy,2022.2.4,60.00758496060822,
1,0,Images/Neonazi 1.jpg,1,2.0577,0.4286272595660632,0,0,0,0,0,0,0,0,,,,,0,55,55,66,,,,,88.90266259998316,89.40190319999238,,,,,,,,,,,,,,,,,,,,,,,,,,,,,,,,,,,,,,,,88.25124459998915,88.25124459998915,88.25124459998915,1,1,None,0.0,0.0,0,0,0,0,0,0,0,0,0,0,0,80.02359389999765,0.6322299000166822,,,,,001,A,2022-10-21_19h43.47.102,psychopy,2022.2.4,60.00758496060822,
1,0,Images/Sleepy pose 1.jpg,1,2.603,0.014083813044789784,0,0,0,0,0,0,0,0,,,,,0,56,56,20,,,,,89.91940680000698,90.42124599998351,,,,,,,,,,,,,,,,,,,,,,,,,,,,,,,,,,,,,,,,89.40190319999238,89.40190319999238,89.40190319999238,1,1,None,0.0,0.0,0,0,0,0,0,0,0,0,0,0,0,81.03890179999871,0.49709449999500066,,,,,001,A,2022-10-21_19h43.47.102,psychopy,2022.2.4,60.00758496060822,
1,0,Images/Destruction 5.jpg,2,2.1143,0.6225236117358539,0,0,0,0,0,0,0,0,,,,,0,57,57,1,,,,,91.15336840000236,91.6561747000087,,,,,,,,,,,,,,,,,,,,,,,,,,,,,,,,,,,,,,,,90.42124599998351,90.42124599998351,90.42124599998351,2,1,None,0.0,0.0,0,0,0,0,0,0,0,0,0,0,0,82.27356800000416,0.70093469999847,,,,,001,A,2022-10-21_19h43.47.102,psychopy,2022.2.4,60.00758496060822,
1,0,Images/Miserable pose 1.jpg,1,2.579,0.41254038389301795,0,0,0,0,0,0,0,0,,,,,0,58,58,73,,,,,92.35252220000257,92.85468960000435,,,,,,,,,,,,,,,,,,,,,,,,,,,,,,,,,,,,,,,,91.6561747000087,91.6561747000087,91.6561747000087,1,1,None,0.0,0.0,0,0,0,0,0,0,0,0,0,0,0,83.47158309997758,0.6747293999942485,,,,,001,A,2022-10-21_19h43.47.102,psychopy,2022.2.4,60.00758496060822,
1,0,Images/Destruction 10.jpg,2,2.0682,0.33267433135769797,0,0,0,0,0,0,0,0,,,,,0,59,59,9,,,,,93.60237599999527,94.10223819999374,,,,,,,,,,,,,,,,,,,,,,,,,,,,,,,,,,,,,,,,92.85468960000435,92.85468960000435,92.85468960000435,2,1,None,0.0,0.0,0,0,0,0,0,0,0,0,0,0,0,84.72115779999876,0.7162799999932759,,,,,001,A,2022-10-21_19h43.47.102,psychopy,2022.2.4,60.00758496060822,
1,0,Images/Lake 10.jpg,2,6.125,0.9853027217264094,0,0,0,0,0,0,0,0,,,,,0,60,60,44,,,,,95.11918449998484,,,,,,,,,,,,,,,,,,,,,,,,,,,,,,,,,,,,,,,,,94.10223819999374,94.10223819999374,94.10223819999374,None,0,None,0.0,0.0,0,0,0,0,0,0,0,0,0,0,0,86.23678569999174,,95.1025044999842,95.1025044999842,95.1025044999842,,001,A,2022-10-21_19h43.47.102,psychopy,2022.2.4,60.00758496060822,
1,0,Images/Cat 4.jpg,1,5.798,0.06333628944787684,0,0,0,0,0,0,0,0,,,,,0,61,61,38,,,,,96.31902520000585,96.8190048999968,,,,,,,,,,,,,,,,,,,,,,,,,,,,,,,,,,,,,,,,95.61900859998423,95.61900859998423,95.61900859998423,1,1,None,0.0,0.0,0,0,0,0,0,0,0,0,0,0,0,87.43775789998472,0.6716752000211272,,,,,001,A,2022-10-21_19h43.47.102,psychopy,2022.2.4,60.00758496060822,
1,0,Images/Miserable pose 4.jpg,1,2.5702,0.4458257869062262,0,0,0,0,0,0,0,0,,,,,0,62,62,32,,,,,97.43594359999406,97.93900990000111,,,,,,,,,,,,,,,,,,,,,,,,,,,,,,,,,,,,,,,,96.8190048999968,96.8190048999968,96.8190048999968,1,1,None,0.0,0.0,0,0,0,0,0,0,0,0,0,0,0,88.555197699985,0.5990798999846447,,,,,001,A,2022-10-21_19h43.47.102,psychopy,2022.2.4,60.00758496060822,
1,0,Images/Frustrated pose 2.jpg,1,2.6481,0.07843080009801606,0,0,0,0,0,0,0,0,,,,,0,63,63,49,,,,,98.45255620000535,98.95245039998554,,,,,,,,,,,,,,,,,,,,,,,,,,,,,,,,,,,,,,,,97.93900990000111,97.93900990000111,97.93900990000111,1,1,None,0.0,0.0,0,0,0,0,0,0,0,0,0,0,0,89.57163469999796,0.4870957999955863,,,,,001,A,2022-10-21_19h43.47.102,psychopy,2022.2.4,60.00758496060822,
1,0,Images/Wedding 6.jpg,1,6.0481,0.4733426449134829,0,0,0,0,0,0,0,0,,,,,0,64,64,31,,,,,99.36906100000488,99.87145919998875,,,,,,,,,,,,,,,,,,,,,,,,,,,,,,,,,,,,,,,,98.95245039998554,98.95245039998554,98.95245039998554,1,1,None,0.0,0.0,0,0,0,0,0,0,0,0,0,0,0,90.48693549999734,0.38547760000801645,,,,,001,A,2022-10-21_19h43.47.102,psychopy,2022.2.4,60.00758496060822,
1,0,Images/Sad pose 4.jpg,1,2.8282,0.528378645398541,0,0,0,0,0,0,0,0,,,,,0,65,65,26,,,,,100.31873299999279,100.81884110000101,,,,,,,,,,,,,,,,,,,,,,,,,,,,,,,,,,,,,,,,99.87145919998875,99.87145919998875,99.87145919998875,1,1,None,0.0,0.0,0,0,0,0,0,0,0,0,0,0,0,91.43680119997589,0.41840809999848716,,,,,001,A,2022-10-21_19h43.47.102,psychopy,2022.2.4,60.00758496060822,
1,0,Images/Intensity 1.jpg,1,2.8252,0.013798226426593896,0,0,0,0,0,0,0,0,,,,,0,66,66,76,,,,,101.25286989999586,101.75448909998522,,,,,,,,,,,,,,,,,,,,,,,,,,,,,,,,,,,,,,,,100.81884110000101,100.81884110000101,100.81884110000101,1,1,None,0.0,0.0,0,0,0,0,0,0,0,0,0,0,0,92.37276840000413,0.40688210001098923,,,,,001,A,2022-10-21_19h43.47.102,psychopy,2022.2.4,60.00758496060822,
1,0,Images/Gun 4.jpg,2,2.9016,0.1467485923469446,0,0,0,0,0,0,0,0,,,,,0,67,67,55,,,,,102.28626580000855,102.78992370000924,,,,,,,,,,,,,,,,,,,,,,,,,,,,,,,,,,,,,,,,101.75448909998522,101.75448909998522,101.75448909998522,1,0,None,0.0,0.0,0,0,0,0,0,0,0,0,0,0,0,93.405912599992,0.5043319999822415,,,,,001,A,2022-10-21_19h43.47.102,psychopy,2022.2.4,60.00758496060822,
1,0,Images/Car Accident 3.jpg,2,2.7945,0.7732278009857427,0,0,0,0,0,0,0,0,,,,,0,68,68,58,,,,,103.28544569999212,103.78577170000062,,,,,,,,,,,,,,,,,,,,,,,,,,,,,,,,,,,,,,,,102.78992370000924,102.78992370000924,102.78992370000924,2,1,None,0.0,0.0,0,0,0,0,0,0,0,0,0,0,0,94.40322670000023,0.4681326000136323,,,,,001,A,2022-10-21_19h43.47.102,psychopy,2022.2.4,60.00758496060822,
1,0,Images/Angry face 3.jpg,1,2.5188,0.21834471638364283,0,0,0,0,0,0,0,0,,,,,0,69,69,27,,,,,104.45275979998405,104.95459879998816,,,,,,,,,,,,,,,,,,,,,,,,,,,,,,,,,,,,,,,,103.78577170000062,103.78577170000062,103.78577170000062,1,1,None,0.0,0.0,0,0,0,0,0,0,0,0,0,0,0,95.5724438999896,0.6408135000092443,,,,,001,A,2022-10-21_19h43.47.102,psychopy,2022.2.4,60.00758496060822,
1,0,Images/Flowers 1.jpg,2,5.8142,0.5470930681193592,0,0,0,0,0,0,0,0,,,,,0,70,70,25,,,,,105.76926919998368,106.2703050999844,,,,,,,,,,,,,,,,,,,,,,,,,,,,,,,,,,,,,,,,104.95459879998816,104.95459879998816,104.95459879998816,2,1,None,0.0,0.0,0,0,0,0,0,0,0,0,0,0,0,96.88849529999425,0.7926583000225946,,,,,001,A,2022-10-21_19h43.47.102,psychopy,2022.2.4,60.00758496060822,
1,0,Images/Dog 18.jpg,1,6.1614,0.7399603693185757,0,0,0,0,0,0,0,0,,,,,0,71,71,35,,,,,107.28605190000962,,,,,,,,,,,,,,,,,,,,,,,,,,,,,,,,,,,,,,,,,106.2703050999844,106.2703050999844,106.2703050999844,None,0,None,0.0,0.0,0,0,0,0,0,0,0,0,0,0,0,98.40390849998221,,107.26941360000637,107.26941360000637,107.26941360000637,,001,A,2022-10-21_19h43.47.102,psychopy,2022.2.4,60.00758496060822,
1,0,Images/Birthday 3.jpg,2,5.5506,0.43820828115997645,0,0,0,0,0,0,0,0,,,,,0,72,72,61,,,,,107.95236490000389,108.45339219999732,,,,,,,,,,,,,,,,,,,,,,,,,,,,,,,,,,,,,,,,107.78805750000174,107.78805750000174,107.78805750000174,1,0,None,0.0,0.0,0,0,0,0,0,0,0,0,0,0,0,99.0708433999971,0.13572069999645464,,,,,001,A,2022-10-21_19h43.47.102,psychopy,2022.2.4,60.00758496060822,
1,0,Images/Explosion 1.jpg,2,2.7061,0.09556197736042626,0,0,0,0,0,0,0,0,,,,,0,73,73,77,,,,,108.83564209999167,109.3355978000036,,,,,,,,,,,,,,,,,,,,,,,,,,,,,,,,,,,,,,,,108.45339219999732,108.45339219999732,108.45339219999732,1,0,None,0.0,0.0,0,0,0,0,0,0,0,0,0,0,0,99.95334809998167,0.35626940001384355,,,,,001,A,2022-10-21_19h43.47.102,psychopy,2022.2.4,60.00758496060822,
,,,,,,,,,,,,,,,,,,,,,,,,,,,,,,,,,,,,,,,,,,,,,,,,,,,,,,,,,,,,,,,,,,,109.3355978000036,109.3355978000036,109.3355978000036,,,,,,,,,,,,,,,,,,,,,,,,,,,,,
