nRepsTask1,nRepsTask2,ImageFile,AnimateInanimate,ValenceScore,Rand,controlTaskOrder.thisRepN,controlTaskOrder.thisTrialN,controlTaskOrder.thisN,controlTaskOrder.thisIndex,part1.thisRepN,part1.thisTrialN,part1.thisN,part1.thisIndex,trialsStudyImages.thisRepN,trialsStudyImages.thisTrialN,trialsStudyImages.thisN,trialsStudyImages.thisIndex,trialsTest1_1.thisRepN,trialsTest1_1.thisTrialN,trialsTest1_1.thisN,trialsTest1_1.thisIndex,trialsTest1_2.thisRepN,trialsTest1_2.thisTrialN,trialsTest1_2.thisN,trialsTest1_2.thisIndex,trialsTest1_3.thisRepN,trialsTest1_3.thisTrialN,trialsTest1_3.thisN,trialsTest1_3.thisIndex,trialsTest1_4.thisRepN,trialsTest1_4.thisTrialN,trialsTest1_4.thisN,trialsTest1_4.thisIndex,part2.thisRepN,part2.thisTrialN,part2.thisN,part2.thisIndex,trialsStudyImages2.thisRepN,trialsStudyImages2.thisTrialN,trialsStudyImages2.thisN,trialsStudyImages2.thisIndex,trialsTestImages2_1.thisRepN,trialsTestImages2_1.thisTrialN,trialsTestImages2_1.thisN,trialsTestImages2_1.thisIndex,trialsTestImages2_2.thisRepN,trialsTestImages2_2.thisTrialN,trialsTestImages2_2.thisN,trialsTestImages2_2.thisIndex,trialsTestImages2_3.thisRepN,trialsTestImages2_3.thisTrialN,trialsTestImages2_3.thisN,trialsTestImages2_3.thisIndex,trialsTestImages2_4.thisRepN,trialsTestImages2_4.thisTrialN,trialsTestImages2_4.thisN,trialsTestImages2_4.thisIndex,key_resp.started,WelcomeText.started,key_resp.keys,key_resp.rt,text_2.started,text_2.stopped,key_resp_2.started,ConsentText.started,key_resp_2.keys,key_resp_2.rt,key_resp_3.started,InstructionText.started,key_resp_3.keys,key_resp_3.rt,key_resp_8.started,text_7.started,key_resp_8.keys,key_resp_8.rt,text_4.started,key_resp_4.started,key_resp_4.keys,key_resp_4.rt,image.started,key_resp_7.started,joystick.started,joystick.stopped,key_resp_7.keys,key_resp_7.corr,key_resp_7.rt,joystick.x,joystick.y,joystick.button_0,joystick.button_1,joystick.button_2,joystick.button_3,joystick.button_4,joystick.button_5,joystick.button_6,joystick.button_7,joystick.button_8,joystick.button_9,joystick.button_10,joystick.time,text_6.started,key_resp_6.started,key_resp_6.keys,key_resp_6.rt,image_2.started,key_resp_9.started,button_resp.started,button_resp.stopped,key_resp_9.keys,key_resp_9.corr,key_resp_9.rt,button_resp.keys,text_5.started,key_resp_5.started,key_resp_5.keys,key_resp_5.rt,key_resp_10.started,image_3.started,key_resp_10.keys,key_resp_10.corr,key_resp_10.rt,key_resp_11.started,image_4.started,key_resp_11.keys,key_resp_11.corr,key_resp_11.rt,key_resp_12.started,image_5.started,key_resp_12.keys,key_resp_12.corr,key_resp_12.rt,text_8.started,key_resp_13.started,key_resp_13.keys,key_resp_13.rt,key_resp_14.started,image_7.started,key_resp_14.keys,key_resp_14.rt,text_9.started,key_resp_15.started,key_resp_15.keys,key_resp_15.rt,key_resp_16.started,image_6.started,key_resp_16.keys,key_resp_16.corr,key_resp_16.rt,key_resp_17.started,image_8.started,key_resp_17.keys,key_resp_17.corr,key_resp_17.rt,key_resp_18.started,image_9.started,key_resp_18.keys,key_resp_18.corr,key_resp_18.rt,key_resp_19.started,image_10.started,key_resp_19.keys,key_resp_19.corr,key_resp_19.rt,key_resp_20.started,text_3.started,key_resp_20.keys,key_resp_20.rt,participant,session,group,date,expName,psychopyVersion,frameRate,
,,,,,,,,,,,,,,,,,,,,,,,,,,,,,,,,,,,,,,,,,,,,,,,,,,,,,,,,,,1106.6561122001149,1106.6561122001149,space,1.9758280999958515,,,,,,,,,,,,,,,,,,,,,,,,,,,,,,,,,,,,,,,,,,,,,,,,,,,,,,,,,,,,,,,,,,,,,,,,,,,,,,,,,,,,,,,,,,,,,,,,,,,,,,,,,,,sangjun,001,A,2022-10-17_14h26.28.579,psychopy,2022.2.4,60.08766788947518,
,,,,,,,,,,,,,,,,,,,,,,,,,,,,,,,,,,,,,,,,,,,,,,,,,,,,,,,,,,,,,,1108.6640314999968,1109.1635688003153,1109.1635688003153,1109.1635688003153,space,11.438235899899155,,,,,,,,,,,,,,,,,,,,,,,,,,,,,,,,,,,,,,,,,,,,,,,,,,,,,,,,,,,,,,,,,,,,,,,,,,,,,,,,,,,,,,,,,,,,,,,,,,,,,sangjun,001,A,2022-10-17_14h26.28.579,psychopy,2022.2.4,60.08766788947518,
,,,,,,,,,,,,,,,,,,,,,,,,,,,,,,,,,,,,,,,,,,,,,,,,,,,,,,,,,,,,,,1120.630321800243,1121.1303201001137,,,,,1121.1303201001137,1121.1303201001137,space,13.870282299816608,,,,,,,,,,,,,,,,,,,,,,,,,,,,,,,,,,,,,,,,,,,,,,,,,,,,,,,,,,,,,,,,,,,,,,,,,,,,,,,,,,,,,,,,,,,,,,,,,sangjun,001,A,2022-10-17_14h26.28.579,psychopy,2022.2.4,60.08766788947518,
,,,,,,,,,,,,,,,,,,,,,,,,,,,,,,,,,,,,,,,,,,,,,,,,,,,,,,,,,,,,,,1135.0301483999938,1135.5301387002692,,,,,,,,,1135.5301387002692,1135.5301387002692,space,10.158208899665624,,,,,,,,,,,,,,,,,,,,,,,,,,,,,,,,,,,,,,,,,,,,,,,,,,,,,,,,,,,,,,,,,,,,,,,,,,,,,,,,,,,,,,,,,,,,,sangjun,001,A,2022-10-17_14h26.28.579,psychopy,2022.2.4,60.08766788947518,
1,0,Images/Goat 1.jpg,1,,,0,0,0,0,0,0,0,0,0,0,0,0,,,,,,,,,,,,,,,,,,,,,,,,,,,,,,,,,,,,,,,,,,,,,1198.7802516999654,1199.2818154999986,,,,,,,,,,,,,1146.2152430000715,1146.2152430000715,space,6.1849742997437716,1152.4499981999397,1152.4499981999397,0.009517199825495481,2.0322218001820147,1,1,46.31134399957955,0.0,0.0,0,0,0,0,0,0,0,0,0,0,0,46.342280299868435,,,,,,,,,,,,,,,,,,,,,,,,,,,,,,,,,,,,,,,,,,,,,,,,,,,,,,,,,,,,,,,,,,,,sangjun,001,A,2022-10-17_14h26.28.579,psychopy,2022.2.4,60.08766788947518,
1,0,Images/Happy face 2.jpg,1,,,0,0,0,0,0,0,0,0,0,1,1,1,,,,,,,,,,,,,,,,,,,,,,,,,,,,,,,,,,,,,,,,,,,,,1201.9131539999507,,,,,,,,,,,,,,,,,,1199.2818154999986,1199.2818154999986,0.005452899727970362,2.011912999674678,1,1,2.599240199662745,0.0,0.0,0,0,0,0,0,0,0,0,0,0,0,2.6235762001015246,,,,,,,,,,,,,,,,,,,,,,,,,,,,,,,,,,,,,,,,,,,,,,,,,,,,,,,,,,,,,,,,,,,,sangjun,001,A,2022-10-17_14h26.28.579,psychopy,2022.2.4,60.08766788947518,
1,0,Images/Lion 1.jpg,1,,,0,0,0,0,0,0,0,0,0,2,2,2,,,,,,,,,,,,,,,,,,,,,,,,,,,,,,,,,,,,,,,,,,,,,1203.7811511000618,1204.2834880002774,,,,,,,,,,,,,,,,,1202.416114100255,1202.416114100255,0.010407800320535898,,1,1,1.3441174998879433,0.0,0.0,0,0,0,0,0,0,0,0,0,0,0,1.359419799875468,,,,,,,,,,,,,,,,,,,,,,,,,,,,,,,,,,,,,,,,,,,,,,,,,,,,,,,,,,,,,,,,,,,,sangjun,001,A,2022-10-17_14h26.28.579,psychopy,2022.2.4,60.08766788947518,
1,0,Images/Monkey 1.jpg,1,,,0,0,0,0,0,0,0,0,0,3,3,3,,,,,,,,,,,,,,,,,,,,,,,,,,,,,,,,,,,,,,,,,,,,,1205.4635528000072,1205.96662450023,,,,,,,,,,,,,,,,,1204.2834880002774,1204.2834880002774,0.006403499748557806,,1,1,1.1489518992602825,0.0,0.0,0,0,0,0,0,0,0,0,0,0,0,1.1720034000463784,,,,,,,,,,,,,,,,,,,,,,,,,,,,,,,,,,,,,,,,,,,,,,,,,,,,,,,,,,,,,,,,,,,,sangjun,001,A,2022-10-17_14h26.28.579,psychopy,2022.2.4,60.08766788947518,
1,0,Images/Dog 12.jpg,1,,,0,0,0,0,0,0,0,0,0,4,4,4,,,,,,,,,,,,,,,,,,,,,,,,,,,,,,,,,,,,,,,,,,,,,1206.613364400342,1207.12880650023,,,,,,,,,,,,,,,,,1205.96662450023,1205.96662450023,0.009661499876528978,,1,1,0.6258952994830906,0.0,0.0,0,0,0,0,0,0,0,0,0,0,0,0.6384482001885772,,,,,,,,,,,,,,,,,,,,,,,,,,,,,,,,,,,,,,,,,,,,,,,,,,,,,,,,,,,,,,,,,,,,sangjun,001,A,2022-10-17_14h26.28.579,psychopy,2022.2.4,60.08766788947518,
1,0,Images/Gun 5.jpg,2,,,0,0,0,0,0,0,0,0,0,5,5,5,,,,,,,,,,,,,,,,,,,,,,,,,,,,,,,,,,,,,,,,,,,,,1207.8464248999953,1208.3473775000311,,,,,,,,,,,,,,,,,1207.12880650023,1207.12880650023,0.005984900053590536,,2,1,0.6869254997000098,0.0,0.0,0,0,0,0,0,0,0,0,0,0,0,0.7246902999468148,,,,,,,,,,,,,,,,,,,,,,,,,,,,,,,,,,,,,,,,,,,,,,,,,,,,,,,,,,,,,,,,,,,,sangjun,001,A,2022-10-17_14h26.28.579,psychopy,2022.2.4,60.08766788947518,
1,0,Images/Money 1.jpg,2,,,0,0,0,0,0,0,0,0,0,6,6,6,,,,,,,,,,,,,,,,,,,,,,,,,,,,,,,,,,,,,,,,,,,,,1208.8969507999718,1209.3965381002054,,,,,,,,,,,,,,,,,1208.3473775000311,1208.3473775000311,0.007328900042921305,,2,1,0.517990599386394,0.0,0.0,0,0,0,0,0,0,0,0,0,0,0,0.5442514000460505,,,,,,,,,,,,,,,,,,,,,,,,,,,,,,,,,,,,,,,,,,,,,,,,,,,,,,,,,,,,,,,,,,,,sangjun,001,A,2022-10-17_14h26.28.579,psychopy,2022.2.4,60.08766788947518,
1,0,Images/Office supplies 4.jpg,2,,,0,0,0,0,0,0,0,0,0,7,7,7,,,,,,,,,,,,,,,,,,,,,,,,,,,,,,,,,,,,,,,,,,,,,1209.9297386999242,1210.4319099001586,,,,,,,,,,,,,,,,,1209.3965381002054,1209.3965381002054,0.012408700305968523,,2,1,0.5153134996071458,0.0,0.0,0,0,0,0,0,0,0,0,0,0,0,0.5170624000020325,,,,,,,,,,,,,,,,,,,,,,,,,,,,,,,,,,,,,,,,,,,,,,,,,,,,,,,,,,,,,,,,,,,,sangjun,001,A,2022-10-17_14h26.28.579,psychopy,2022.2.4,60.08766788947518,
1,0,Images/Sidewalk 3.jpg,2,,,0,0,0,0,0,0,0,0,0,8,8,8,,,,,,,,,,,,,,,,,,,,,,,,,,,,,,,,,,,,,,,,,,,,,1210.997113800142,1211.496534100268,,,,,,,,,,,,,,,,,1210.4319099001586,1210.4319099001586,0.008598499931395054,,2,1,0.5376006998121738,0.0,0.0,0,0,0,0,0,0,0,0,0,0,0,0.5590485003776848,,,,,,,,,,,,,,,,,,,,,,,,,,,,,,,,,,,,,,,,,,,,,,,,,,,,,,,,,,,,,,,,,,,,sangjun,001,A,2022-10-17_14h26.28.579,psychopy,2022.2.4,60.08766788947518,
1,0,Images/Storage 1.jpg,2,,,0,0,0,0,0,0,0,0,0,9,9,9,,,,,,,,,,,,,,,,,,,,,,,,,,,,,,,,,,,,,,,,,,,,,1212.2140613999218,1212.7134759002365,,,,,,,,,,,,,,,,,1211.496534100268,1211.496534100268,0.004048599861562252,,2,1,0.6966216997243464,0.0,0.0,0,0,0,0,0,0,0,0,0,0,0,0.7121635000221431,,,,,,,,,,,,,,,,,,,,,,,,,,,,,,,,,,,,,,,,,,,,,,,,,,,,,,,,,,,,,,,,,,,,sangjun,001,A,2022-10-17_14h26.28.579,psychopy,2022.2.4,60.08766788947518,
1,0,Images/Neonazi 1.jpg,1,2.0577,0.8848283844025013,0,0,0,0,0,0,0,0,,,,,0,0,0,6,,,,,,,,,,,,,,,,,,,,,,,,,,,,,,,,,,,,,,,,,1228.5304168001749,1229.0310671003535,,,,,,,,,,,,,,,,,,,,,,,,,,,,,,,,,,,,,,1212.7134759002365,1212.7134759002365,space,13.631024899892509,1226.3899337002076,1226.3899337002076,1226.3899337002076,1228.3964551002719,1,1,2.123020699713379,None,,,,,,,,,,,,,,,,,,,,,,,,,,,,,,,,,,,,,,,,,,,,,,,,,,,,,,,,sangjun,001,A,2022-10-17_14h26.28.579,psychopy,2022.2.4,60.08766788947518,
1,0,Images/Explosion 4.jpg,2,2.4912,0.7212808895846713,0,0,0,0,0,0,0,0,,,,,0,1,1,18,,,,,,,,,,,,,,,,,,,,,,,,,,,,,,,,,,,,,,,,,1229.7144908001646,1230.2158788000233,,,,,,,,,,,,,,,,,,,,,,,,,,,,,,,,,,,,,,,,,,1229.0310671003535,1229.0310671003535,1229.0310671003535,,2,1,0.6655950997956097,None,,,,,,,,,,,,,,,,,,,,,,,,,,,,,,,,,,,,,,,,,,,,,,,,,,,,,,,,sangjun,001,A,2022-10-17_14h26.28.579,psychopy,2022.2.4,60.08766788947518,
1,0,Images/Intensity 1.jpg,1,2.8252,0.36804645311705486,0,0,0,0,0,0,0,0,,,,,0,2,2,16,,,,,,,,,,,,,,,,,,,,,,,,,,,,,,,,,,,,,,,,,1230.9133294001222,1231.4132770001888,,,,,,,,,,,,,,,,,,,,,,,,,,,,,,,,,,,,,,,,,,1230.2158788000233,1230.2158788000233,1230.2158788000233,,1,1,0.6809970000758767,None,,,,,,,,,,,,,,,,,,,,,,,,,,,,,,,,,,,,,,,,,,,,,,,,,,,,,,,,sangjun,001,A,2022-10-17_14h26.28.579,psychopy,2022.2.4,60.08766788947518,
1,0,Images/Jail 2.jpg,2,1.9691,0.03865937602444702,0,0,0,0,0,0,0,0,,,,,0,3,3,4,,,,,,,,,,,,,,,,,,,,,,,,,,,,,,,,,,,,,,,,,1232.2479671002366,1232.746461899951,,,,,,,,,,,,,,,,,,,,,,,,,,,,,,,,,,,,,,,,,,1231.4132770001888,1231.4132770001888,1231.4132770001888,,2,1,0.8025838998146355,None,,,,,,,,,,,,,,,,,,,,,,,,,,,,,,,,,,,,,,,,,,,,,,,,,,,,,,,,sangjun,001,A,2022-10-17_14h26.28.579,psychopy,2022.2.4,60.08766788947518,
1,0,Images/Picnic 1.jpg,1,6.0998,0.10131694427212556,0,0,0,0,0,0,0,0,,,,,0,4,4,10,,,,,,,,,,,,,,,,,,,,,,,,,,,,,,,,,,,,,,,,,1233.4139849003404,1233.913237800356,,,,,,,,,,,,,,,,,,,,,,,,,,,,,,,,,,,,,,,,,,1232.746461899951,1232.746461899951,1232.746461899951,,1,1,0.646149699576199,None,,,,,,,,,,,,,,,,,,,,,,,,,,,,,,,,,,,,,,,,,,,,,,,,,,,,,,,,sangjun,001,A,2022-10-17_14h26.28.579,psychopy,2022.2.4,60.08766788947518,
1,0,Images/Birthday 3.jpg,2,5.5506,0.46285993459803654,0,0,0,0,0,0,0,0,,,,,0,5,5,1,,,,,,,,,,,,,,,,,,,,,,,,,,,,,,,,,,,,,,,,,1235.3467872003093,1235.8474862002768,,,,,,,,,,,,,,,,,,,,,,,,,,,,,,,,,,,,,,,,,,1233.913237800356,1233.913237800356,1233.913237800356,,2,1,1.4073276994749904,None,,,,,,,,,,,,,,,,,,,,,,,,,,,,,,,,,,,,,,,,,,,,,,,,,,,,,,,,sangjun,001,A,2022-10-17_14h26.28.579,psychopy,2022.2.4,60.08766788947518,
1,0,Images/Horse 1.jpg,1,5.9469,0.7736589633910252,0,0,0,0,0,0,0,0,,,,,0,6,6,15,,,,,,,,,,,,,,,,,,,,,,,,,,,,,,,,,,,,,,,,,1236.6963863000274,1237.1964345001616,,,,,,,,,,,,,,,,,,,,,,,,,,,,,,,,,,,,,,,,,,1235.8474862002768,1235.8474862002768,1235.8474862002768,,1,1,0.8245528996922076,None,,,,,,,,,,,,,,,,,,,,,,,,,,,,,,,,,,,,,,,,,,,,,,,,,,,,,,,,sangjun,001,A,2022-10-17_14h26.28.579,psychopy,2022.2.4,60.08766788947518,
1,0,Images/Mother 5.jpg,1,5.9438,0.5672645993361737,0,0,0,0,0,0,0,0,,,,,0,7,7,14,,,,,,,,,,,,,,,,,,,,,,,,,,,,,,,,,,,,,,,,,1237.9972979999147,1238.4965441999957,,,,,,,,,,,,,,,,,,,,,,,,,,,,,,,,,,,,,,,,,,1237.1964345001616,1237.1964345001616,1237.1964345001616,,1,1,0.771809199359268,None,,,,,,,,,,,,,,,,,,,,,,,,,,,,,,,,,,,,,,,,,,,,,,,,,,,,,,,,sangjun,001,A,2022-10-17_14h26.28.579,psychopy,2022.2.4,60.08766788947518,
1,0,Images/Miserable pose 1.jpg,1,2.579,0.9842937974063046,0,0,0,0,0,0,0,0,,,,,0,8,8,13,,,,,,,,,,,,,,,,,,,,,,,,,,,,,,,,,,,,,,,,,1239.1637764000334,1239.6633005002514,,,,,,,,,,,,,,,,,,,,,,,,,,,,,,,,,,,,,,,,,,1238.4965441999957,1238.4965441999957,1238.4965441999957,,1,1,0.6390764997340739,None,,,,,,,,,,,,,,,,,,,,,,,,,,,,,,,,,,,,,,,,,,,,,,,,,,,,,,,,sangjun,001,A,2022-10-17_14h26.28.579,psychopy,2022.2.4,60.08766788947518,
1,0,Images/Soldiers 7.jpg,1,2.5465,0.9977797084285572,0,0,0,0,0,0,0,0,,,,,0,9,9,2,,,,,,,,,,,,,,,,,,,,,,,,,,,,,,,,,,,,,,,,,1240.613176099956,1241.1157627999783,,,,,,,,,,,,,,,,,,,,,,,,,,,,,,,,,,,,,,,,,,1239.6633005002514,1239.6633005002514,1239.6633005002514,,1,1,0.9300459995865822,None,,,,,,,,,,,,,,,,,,,,,,,,,,,,,,,,,,,,,,,,,,,,,,,,,,,,,,,,sangjun,001,A,2022-10-17_14h26.28.579,psychopy,2022.2.4,60.08766788947518,
1,0,Images/Sidewalk 6.jpg,2,2.7978,0.6052913211298454,0,0,0,0,0,0,0,0,,,,,0,10,10,19,,,,,,,,,,,,,,,,,,,,,,,,,,,,,,,,,,,,,,,,,1241.8134640003555,1242.3132499000058,,,,,,,,,,,,,,,,,,,,,,,,,,,,,,,,,,,,,,,,,,1241.1157627999783,1241.1157627999783,1241.1157627999783,,2,1,0.6692334995605052,None,,,,,,,,,,,,,,,,,,,,,,,,,,,,,,,,,,,,,,,,,,,,,,,,,,,,,,,,sangjun,001,A,2022-10-17_14h26.28.579,psychopy,2022.2.4,60.08766788947518,
1,0,Images/Massage 2.jpg,1,5.7288,0.7429463957737557,0,0,0,0,0,0,0,0,,,,,0,11,11,12,,,,,,,,,,,,,,,,,,,,,,,,,,,,,,,,,,,,,,,,,1243.0804694001563,1243.580358300358,,,,,,,,,,,,,,,,,,,,,,,,,,,,,,,,,,,,,,,,,,1242.3132499000058,1242.3132499000058,1242.3132499000058,,1,1,0.7432348998263478,None,,,,,,,,,,,,,,,,,,,,,,,,,,,,,,,,,,,,,,,,,,,,,,,,,,,,,,,,sangjun,001,A,2022-10-17_14h26.28.579,psychopy,2022.2.4,60.08766788947518,
1,0,Images/Sad pose 1.jpg,1,2.8801,0.568733967121452,0,0,0,0,0,0,0,0,,,,,0,12,12,11,,,,,,,,,,,,,,,,,,,,,,,,,,,,,,,,,,,,,,,,,1244.2635812000372,1244.7637539003044,,,,,,,,,,,,,,,,,,,,,,,,,,,,,,,,,,,,,,,,,,1243.580358300358,1243.580358300358,1243.580358300358,,1,1,0.6513897995464504,None,,,,,,,,,,,,,,,,,,,,,,,,,,,,,,,,,,,,,,,,,,,,,,,,,,,,,,,,sangjun,001,A,2022-10-17_14h26.28.579,psychopy,2022.2.4,60.08766788947518,
1,0,Images/Yarn 1.jpg,2,2.5645,0.6029614127731355,0,0,0,0,0,0,0,0,,,,,0,13,13,8,,,,,,,,,,,,,,,,,,,,,,,,,,,,,,,,,,,,,,,,,1245.3302712999284,1245.8303820001893,,,,,,,,,,,,,,,,,,,,,,,,,,,,,,,,,,,,,,,,,,1244.7637539003044,1244.7637539003044,1244.7637539003044,,2,1,0.5484411995857954,None,,,,,,,,,,,,,,,,,,,,,,,,,,,,,,,,,,,,,,,,,,,,,,,,,,,,,,,,sangjun,001,A,2022-10-17_14h26.28.579,psychopy,2022.2.4,60.08766788947518,
1,0,Images/Police 5.jpg,1,2.4345,0.07517344267112913,0,0,0,0,0,0,0,0,,,,,0,14,14,3,,,,,,,,,,,,,,,,,,,,,,,,,,,,,,,,,,,,,,,,,1246.4798485999927,1246.97954080021,,,,,,,,,,,,,,,,,,,,,,,,,,,,,,,,,,,,,,,,,,1245.8303820001893,1245.8303820001893,1245.8303820001893,,1,1,0.6258348994888365,None,,,,,,,,,,,,,,,,,,,,,,,,,,,,,,,,,,,,,,,,,,,,,,,,,,,,,,,,sangjun,001,A,2022-10-17_14h26.28.579,psychopy,2022.2.4,60.08766788947518,
1,0,Images/Fire 7.jpg,2,1.7007,0.6719101083569338,0,0,0,0,0,0,0,0,,,,,0,15,15,0,,,,,,,,,,,,,,,,,,,,,,,,,,,,,,,,,,,,,,,,,1247.546874599997,1248.047769000288,,,,,,,,,,,,,,,,,,,,,,,,,,,,,,,,,,,,,,,,,,1246.97954080021,1246.97954080021,1246.97954080021,,2,1,0.5482631996273994,None,,,,,,,,,,,,,,,,,,,,,,,,,,,,,,,,,,,,,,,,,,,,,,,,,,,,,,,,sangjun,001,A,2022-10-17_14h26.28.579,psychopy,2022.2.4,60.08766788947518,
1,0,Images/Baby 6.jpg,1,6.0604,0.39030199076009964,0,0,0,0,0,0,0,0,,,,,0,16,16,5,,,,,,,,,,,,,,,,,,,,,,,,,,,,,,,,,,,,,,,,,1248.6469319001772,1249.1467862999998,,,,,,,,,,,,,,,,,,,,,,,,,,,,,,,,,,,,,,,,,,1248.047769000288,1248.047769000288,1248.047769000288,,1,1,0.5768462996929884,None,,,,,,,,,,,,,,,,,,,,,,,,,,,,,,,,,,,,,,,,,,,,,,,,,,,,,,,,sangjun,001,A,2022-10-17_14h26.28.579,psychopy,2022.2.4,60.08766788947518,
1,0,Images/Bird 3.jpg,1,6.0495,0.1352931607121708,0,0,0,0,0,0,0,0,,,,,0,17,17,9,,,,,,,,,,,,,,,,,,,,,,,,,,,,,,,,,,,,,,,,,1249.9967527999543,1250.4966166000813,,,,,,,,,,,,,,,,,,,,,,,,,,,,,,,,,,,,,,,,,,1249.1467862999998,1249.1467862999998,1249.1467862999998,,1,1,0.8214216995984316,None,,,,,,,,,,,,,,,,,,,,,,,,,,,,,,,,,,,,,,,,,,,,,,,,,,,,,,,,sangjun,001,A,2022-10-17_14h26.28.579,psychopy,2022.2.4,60.08766788947518,
1,0,Images/Toilet 4.jpg,2,2.4986,0.898260773201397,0,0,0,0,0,0,0,0,,,,,0,18,18,7,,,,,,,,,,,,,,,,,,,,,,,,,,,,,,,,,,,,,,,,,1251.1301070000045,1251.632292299997,,,,,,,,,,,,,,,,,,,,,,,,,,,,,,,,,,,,,,,,,,1250.4966166000813,1250.4966166000813,1250.4966166000813,,2,1,0.6157482992857695,None,,,,,,,,,,,,,,,,,,,,,,,,,,,,,,,,,,,,,,,,,,,,,,,,,,,,,,,,sangjun,001,A,2022-10-17_14h26.28.579,psychopy,2022.2.4,60.08766788947518,
1,0,Images/Explosion 1.jpg,2,2.7061,0.44591947684325695,0,0,0,0,0,0,0,0,,,,,0,19,19,17,,,,,,,,,,,,,,,,,,,,,,,,,,,,,,,,,,,,,,,,,1252.247648899909,,,,,,,,,,,,,,,,,,,,,,,,,,,,,,,,,,,,,,,,,,,1251.632292299997,1251.632292299997,1251.632292299997,,2,1,0.5927801998332143,None,,,,,,,,,,,,,,,,,,,,,,,,,,,,,,,,,,,,,,,,,,,,,,,,,,,,,,,,sangjun,001,A,2022-10-17_14h26.28.579,psychopy,2022.2.4,60.08766788947518,
1,0,Images/Flowers 1.jpg,2,5.8142,0.9681832377679445,0,0,0,0,0,0,0,0,,,,,,,,,0,0,0,3,,,,,,,,,,,,,,,,,,,,,,,,,,,,,,,,,,,,,1254.980195700191,1255.4796418002807,,,,,,,,,,,,,,,,,,,,,,,,,,,,,,,,,,,,,,,,,,,,,,,,,,1252.763287000358,1252.763287000358,space,1.0929697998799384,1253.8839994003065,1253.8839994003065,1,0,1.0772710996679962,,,,,,,,,,,,,,,,,,,,,,,,,,,,,,,,,,,,,,,,,,,,,,,sangjun,001,A,2022-10-17_14h26.28.579,psychopy,2022.2.4,60.08766788947518,
1,0,Images/Lake 10.jpg,2,6.125,0.06803783377646444,0,0,0,0,0,0,0,0,,,,,,,,,0,1,1,4,,,,,,,,,,,,,,,,,,,,,,,,,,,,,,,,,,,,,1258.6806298000738,1259.1802977002226,,,,,,,,,,,,,,,,,,,,,,,,,,,,,,,,,,,,,,,,,,,,,,,,,,,,,,1255.4796418002807,1255.4796418002807,2,1,3.177384200040251,,,,,,,,,,,,,,,,,,,,,,,,,,,,,,,,,,,,,,,,,,,,,,,sangjun,001,A,2022-10-17_14h26.28.579,psychopy,2022.2.4,60.08766788947518,
1,0,Images/Galaxy 2.jpg,2,5.7867,0.6302955236819875,0,0,0,0,0,0,0,0,,,,,,,,,0,2,2,11,,,,,,,,,,,,,,,,,,,,,,,,,,,,,,,,,,,,,1260.1633371002972,1260.664254500065,,,,,,,,,,,,,,,,,,,,,,,,,,,,,,,,,,,,,,,,,,,,,,,,,,,,,,1259.1802977002226,1259.1802977002226,2,1,0.9649545992724597,,,,,,,,,,,,,,,,,,,,,,,,,,,,,,,,,,,,,,,,,,,,,,,sangjun,001,A,2022-10-17_14h26.28.579,psychopy,2022.2.4,60.08766788947518,
1,0,Images/Bridge 1.jpg,2,5.9383,0.6897392198828115,0,0,0,0,0,0,0,0,,,,,,,,,0,3,3,10,,,,,,,,,,,,,,,,,,,,,,,,,,,,,,,,,,,,,1265.5136494003236,1266.0138294999488,,,,,,,,,,,,,,,,,,,,,,,,,,,,,,,,,,,,,,,,,,,,,,,,,,,,,,1260.664254500065,1260.664254500065,1,0,4.824018499813974,,,,,,,,,,,,,,,,,,,,,,,,,,,,,,,,,,,,,,,,,,,,,,,sangjun,001,A,2022-10-17_14h26.28.579,psychopy,2022.2.4,60.08766788947518,
1,0,Images/Miserable pose 5.jpg,1,2.9754,0.23712124537080626,0,0,0,0,0,0,0,0,,,,,,,,,0,4,4,19,,,,,,,,,,,,,,,,,,,,,,,,,,,,,,,,,,,,,1266.779953500256,1267.2798263002187,,,,,,,,,,,,,,,,,,,,,,,,,,,,,,,,,,,,,,,,,,,,,,,,,,,,,,1266.0138294999488,1266.0138294999488,1,1,0.7386749996803701,,,,,,,,,,,,,,,,,,,,,,,,,,,,,,,,,,,,,,,,,,,,,,,sangjun,001,A,2022-10-17_14h26.28.579,psychopy,2022.2.4,60.08766788947518,
1,0,Images/Frustrated pose 2.jpg,1,2.6481,0.3685257732333962,0,0,0,0,0,0,0,0,,,,,,,,,0,5,5,9,,,,,,,,,,,,,,,,,,,,,,,,,,,,,,,,,,,,,1267.9475217000581,1268.4466146002524,,,,,,,,,,,,,,,,,,,,,,,,,,,,,,,,,,,,,,,,,,,,,,,,,,,,,,1267.2798263002187,1267.2798263002187,1,1,0.6479417998343706,,,,,,,,,,,,,,,,,,,,,,,,,,,,,,,,,,,,,,,,,,,,,,,sangjun,001,A,2022-10-17_14h26.28.579,psychopy,2022.2.4,60.08766788947518,
1,0,Images/Gun 4.jpg,2,2.9016,0.5910602635530477,0,0,0,0,0,0,0,0,,,,,,,,,0,6,6,15,,,,,,,,,,,,,,,,,,,,,,,,,,,,,,,,,,,,,1269.2135107000358,1269.7133896001615,,,,,,,,,,,,,,,,,,,,,,,,,,,,,,,,,,,,,,,,,,,,,,,,,,,,,,1268.4466146002524,1268.4466146002524,2,1,0.7387698995880783,,,,,,,,,,,,,,,,,,,,,,,,,,,,,,,,,,,,,,,,,,,,,,,sangjun,001,A,2022-10-17_14h26.28.579,psychopy,2022.2.4,60.08766788947518,
1,0,Images/Dog 2.jpg,1,5.9348,0.2754860800775859,0,0,0,0,0,0,0,0,,,,,,,,,0,7,7,14,,,,,,,,,,,,,,,,,,,,,,,,,,,,,,,,,,,,,1270.3468554001302,1270.8465134999715,,,,,,,,,,,,,,,,,,,,,,,,,,,,,,,,,,,,,,,,,,,,,,,,,,,,,,1269.7133896001615,1269.7133896001615,1,1,0.6072362996637821,,,,,,,,,,,,,,,,,,,,,,,,,,,,,,,,,,,,,,,,,,,,,,,sangjun,001,A,2022-10-17_14h26.28.579,psychopy,2022.2.4,60.08766788947518,
1,0,Images/Lake 2.jpg,2,6.3635,0.038556499084352325,0,0,0,0,0,0,0,0,,,,,,,,,0,8,8,6,,,,,,,,,,,,,,,,,,,,,,,,,,,,,,,,,,,,,1271.5808183001354,1272.0821424000897,,,,,,,,,,,,,,,,,,,,,,,,,,,,,,,,,,,,,,,,,,,,,,,,,,,,,,1270.8465134999715,1270.8465134999715,1,0,0.705844999756664,,,,,,,,,,,,,,,,,,,,,,,,,,,,,,,,,,,,,,,,,,,,,,,sangjun,001,A,2022-10-17_14h26.28.579,psychopy,2022.2.4,60.08766788947518,
1,0,Images/Elephant 1.jpg,1,5.8272,0.37337377918824577,0,0,0,0,0,0,0,0,,,,,,,,,0,9,9,0,,,,,,,,,,,,,,,,,,,,,,,,,,,,,,,,,,,,,1273.5635766000487,1274.0647631003521,,,,,,,,,,,,,,,,,,,,,,,,,,,,,,,,,,,,,,,,,,,,,,,,,,,,,,1272.0821424000897,1272.0821424000897,1,1,1.4624859998002648,,,,,,,,,,,,,,,,,,,,,,,,,,,,,,,,,,,,,,,,,,,,,,,sangjun,001,A,2022-10-17_14h26.28.579,psychopy,2022.2.4,60.08766788947518,
1,0,Images/Fireworks 3.jpg,2,6.0651,0.6993548167660798,0,0,0,0,0,0,0,0,,,,,,,,,0,10,10,7,,,,,,,,,,,,,,,,,,,,,,,,,,,,,,,,,,,,,1274.8803036003374,1275.3800125000998,,,,,,,,,,,,,,,,,,,,,,,,,,,,,,,,,,,,,,,,,,,,,,,,,,,,,,1274.0647631003521,1274.0647631003521,2,1,0.7919217995367944,,,,,,,,,,,,,,,,,,,,,,,,,,,,,,,,,,,,,,,,,,,,,,,sangjun,001,A,2022-10-17_14h26.28.579,psychopy,2022.2.4,60.08766788947518,
1,0,Images/Hangover 1.jpg,1,2.3921,0.29573749475075606,0,0,0,0,0,0,0,0,,,,,,,,,0,11,11,5,,,,,,,,,,,,,,,,,,,,,,,,,,,,,,,,,,,,,1276.9091803003103,1277.4148161001503,,,,,,,,,,,,,,,,,,,,,,,,,,,,,,,,,,,,,,,,,,,,,,,,,,,,,,1275.3800125000998,1275.3800125000998,1,1,1.4998693000525236,,,,,,,,,,,,,,,,,,,,,,,,,,,,,,,,,,,,,,,,,,,,,,,sangjun,001,A,2022-10-17_14h26.28.579,psychopy,2022.2.4,60.08766788947518,
1,0,Images/Couple 8.jpg,1,5.7678,0.7743825466608354,0,0,0,0,0,0,0,0,,,,,,,,,0,12,12,8,,,,,,,,,,,,,,,,,,,,,,,,,,,,,,,,,,,,,1278.0971440002322,1278.6010608999059,,,,,,,,,,,,,,,,,,,,,,,,,,,,,,,,,,,,,,,,,,,,,,,,,,,,,,1277.4148161001503,1277.4148161001503,1,1,0.6506557995453477,,,,,,,,,,,,,,,,,,,,,,,,,,,,,,,,,,,,,,,,,,,,,,,sangjun,001,A,2022-10-17_14h26.28.579,psychopy,2022.2.4,60.08766788947518,
1,0,Images/Garbage dump 3.jpg,2,2.0219,0.9706680669368237,0,0,0,0,0,0,0,0,,,,,,,,,0,13,13,12,,,,,,,,,,,,,,,,,,,,,,,,,,,,,,,,,,,,,1279.479725500103,1279.9798175999895,,,,,,,,,,,,,,,,,,,,,,,,,,,,,,,,,,,,,,,,,,,,,,,,,,,,,,1278.6010608999059,1278.6010608999059,2,1,0.8467756994068623,,,,,,,,,,,,,,,,,,,,,,,,,,,,,,,,,,,,,,,,,,,,,,,sangjun,001,A,2022-10-17_14h26.28.579,psychopy,2022.2.4,60.08766788947518,
1,0,Images/Car Accident 3.jpg,2,2.7945,0.05253607583664577,0,0,0,0,0,0,0,0,,,,,,,,,0,14,14,18,,,,,,,,,,,,,,,,,,,,,,,,,,,,,,,,,,,,,1280.596797300037,1281.0965885003097,,,,,,,,,,,,,,,,,,,,,,,,,,,,,,,,,,,,,,,,,,,,,,,,,,,,,,1279.9798175999895,1279.9798175999895,2,1,0.5887888995930552,,,,,,,,,,,,,,,,,,,,,,,,,,,,,,,,,,,,,,,,,,,,,,,sangjun,001,A,2022-10-17_14h26.28.579,psychopy,2022.2.4,60.08766788947518,
1,0,Images/Lake 12.jpg,2,6.4088,0.1275962967180766,0,0,0,0,0,0,0,0,,,,,,,,,0,15,15,17,,,,,,,,,,,,,,,,,,,,,,,,,,,,,,,,,,,,,1293.4969252999872,1293.9976083002985,,,,,,,,,,,,,,,,,,,,,,,,,,,,,,,,,,,,,,,,,,,,,,,,,,,,,,1281.0965885003097,1281.0965885003097,2,1,12.37617199961096,,,,,,,,,,,,,,,,,,,,,,,,,,,,,,,,,,,,,,,,,,,,,,,sangjun,001,A,2022-10-17_14h26.28.579,psychopy,2022.2.4,60.08766788947518,
1,0,Images/Flowers 6.jpg,2,5.9556,0.6321902526496216,0,0,0,0,0,0,0,0,,,,,,,,,0,16,16,1,,,,,,,,,,,,,,,,,,,,,,,,,,,,,,,,,,,,,1299.3136766003445,1299.8164606001228,,,,,,,,,,,,,,,,,,,,,,,,,,,,,,,,,,,,,,,,,,,,,,,,,,,,,,1293.9976083002985,1293.9976083002985,2,1,5.298769799992442,,,,,,,,,,,,,,,,,,,,,,,,,,,,,,,,,,,,,,,,,,,,,,,sangjun,001,A,2022-10-17_14h26.28.579,psychopy,2022.2.4,60.08766788947518,
1,0,Images/Dead bodies 2.jpg,1,1.2275,0.4735435104339807,0,0,0,0,0,0,0,0,,,,,,,,,0,17,17,13,,,,,,,,,,,,,,,,,,,,,,,,,,,,,,,,,,,,,1303.0801894003525,1303.5803768001497,,,,,,,,,,,,,,,,,,,,,,,,,,,,,,,,,,,,,,,,,,,,,,,,,,,,,,1299.8164606001228,1299.8164606001228,1,1,3.240963699296117,,,,,,,,,,,,,,,,,,,,,,,,,,,,,,,,,,,,,,,,,,,,,,,sangjun,001,A,2022-10-17_14h26.28.579,psychopy,2022.2.4,60.08766788947518,
1,0,Images/Flowers 9.jpg,2,5.9383,0.934337363604429,0,0,0,0,0,0,0,0,,,,,,,,,0,18,18,16,,,,,,,,,,,,,,,,,,,,,,,,,,,,,,,,,,,,,1307.7632267000154,1308.264416700229,,,,,,,,,,,,,,,,,,,,,,,,,,,,,,,,,,,,,,,,,,,,,,,,,,,,,,1303.5803768001497,1303.5803768001497,2,1,4.155614099465311,,,,,,,,,,,,,,,,,,,,,,,,,,,,,,,,,,,,,,,,,,,,,,,sangjun,001,A,2022-10-17_14h26.28.579,psychopy,2022.2.4,60.08766788947518,
1,0,Images/Gun 6.jpg,2,2.9016,0.445563316770595,0,0,0,0,0,0,0,0,,,,,,,,,0,19,19,2,,,,,,,,,,,,,,,,,,,,,,,,,,,,,,,,,,,,,1309.046629300341,1309.547397499904,,,,,,,,,,,,,,,,,,,,,,,,,,,,,,,,,,,,,,,,,,,,,,,,,,,,,,1308.264416700229,1308.264416700229,2,1,0.7526643997989595,,,,,,,,,,,,,,,,,,,,,,,,,,,,,,,,,,,,,,,,,,,,,,,sangjun,001,A,2022-10-17_14h26.28.579,psychopy,2022.2.4,60.08766788947518,
1,0,Images/Angry face 3.jpg,1,2.5188,0.48977527867005466,0,0,0,0,0,0,0,0,,,,,,,,,,,,,0,0,0,7,,,,,,,,,,,,,,,,,,,,,,,,,,,,,,,,,1311.4300639000721,1311.9301422000863,,,,,,,,,,,,,,,,,,,,,,,,,,,,,,,,,,,,,,,,,,,,,,,,,,1309.547397499904,1309.547397499904,space,0.6058859997428954,,,,,,1310.1911983001046,1310.1911983001046,1,1,1.209799399599433,,,,,,,,,,,,,,,,,,,,,,,,,,,,,,,,,,,,,,,,,,sangjun,001,A,2022-10-17_14h26.28.579,psychopy,2022.2.4,60.08766788947518,
1,0,Images/Beach 2.jpg,2,6.2944,0.12313070150438588,0,0,0,0,0,0,0,0,,,,,,,,,,,,,0,1,1,19,,,,,,,,,,,,,,,,,,,,,,,,,,,,,,,,,1312.7635041000322,1313.2633346999064,,,,,,,,,,,,,,,,,,,,,,,,,,,,,,,,,,,,,,,,,,,,,,,,,,,,,,,,,,,1311.9301422000863,1311.9301422000863,2,1,0.815060899592936,,,,,,,,,,,,,,,,,,,,,,,,,,,,,,,,,,,,,,,,,,sangjun,001,A,2022-10-17_14h26.28.579,psychopy,2022.2.4,60.08766788947518,
1,0,Images/Sleepy pose 1.jpg,1,2.603,0.943587941998371,0,0,0,0,0,0,0,0,,,,,,,,,,,,,0,2,2,0,,,,,,,,,,,,,,,,,,,,,,,,,,,,,,,,,1315.662883500103,1316.1632869001478,,,,,,,,,,,,,,,,,,,,,,,,,,,,,,,,,,,,,,,,,,,,,,,,,,,,,,,,,,,1313.2633346999064,1313.2633346999064,1,1,2.377148799598217,,,,,,,,,,,,,,,,,,,,,,,,,,,,,,,,,,,,,,,,,,sangjun,001,A,2022-10-17_14h26.28.579,psychopy,2022.2.4,60.08766788947518,
1,0,Images/Baby 5.jpg,1,6.1553,0.5652809593512679,0,0,0,0,0,0,0,0,,,,,,,,,,,,,0,3,3,9,,,,,,,,,,,,,,,,,,,,,,,,,,,,,,,,,1316.713386000134,1317.215151200071,,,,,,,,,,,,,,,,,,,,,,,,,,,,,,,,,,,,,,,,,,,,,,,,,,,,,,,,,,,1316.1632869001478,1316.1632869001478,1,1,0.518064399715513,,,,,,,,,,,,,,,,,,,,,,,,,,,,,,,,,,,,,,,,,,sangjun,001,A,2022-10-17_14h26.28.579,psychopy,2022.2.4,60.08766788947518,
1,0,Images/Dancing 7.jpg,1,5.8813,0.8764115484617019,0,0,0,0,0,0,0,0,,,,,,,,,,,,,0,4,4,13,,,,,,,,,,,,,,,,,,,,,,,,,,,,,,,,,1317.7135990001261,1318.2146414001472,,,,,,,,,,,,,,,,,,,,,,,,,,,,,,,,,,,,,,,,,,,,,,,,,,,,,,,,,,,1317.215151200071,1317.215151200071,1,1,0.4810905996710062,,,,,,,,,,,,,,,,,,,,,,,,,,,,,,,,,,,,,,,,,,sangjun,001,A,2022-10-17_14h26.28.579,psychopy,2022.2.4,60.08766788947518,
1,0,Images/Fireworks 2.jpg,2,6.277,0.7624740227305116,0,0,0,0,0,0,0,0,,,,,,,,,,,,,0,5,5,1,,,,,,,,,,,,,,,,,,,,,,,,,,,,,,,,,1318.8468860001303,1319.349158800207,,,,,,,,,,,,,,,,,,,,,,,,,,,,,,,,,,,,,,,,,,,,,,,,,,,,,,,,,,,1318.2146414001472,1318.2146414001472,2,1,0.6103591998107731,,,,,,,,,,,,,,,,,,,,,,,,,,,,,,,,,,,,,,,,,,sangjun,001,A,2022-10-17_14h26.28.579,psychopy,2022.2.4,60.08766788947518,
1,0,Images/Cat 4.jpg,1,5.798,0.38306284120414025,0,0,0,0,0,0,0,0,,,,,,,,,,,,,0,6,6,18,,,,,,,,,,,,,,,,,,,,,,,,,,,,,,,,,1320.1635250002146,1320.663426199928,,,,,,,,,,,,,,,,,,,,,,,,,,,,,,,,,,,,,,,,,,,,,,,,,,,,,,,,,,,1319.349158800207,1319.349158800207,1,1,0.7864844999276102,,,,,,,,,,,,,,,,,,,,,,,,,,,,,,,,,,,,,,,,,,sangjun,001,A,2022-10-17_14h26.28.579,psychopy,2022.2.4,60.08766788947518,
1,0,Images/Excited face 2.jpg,1,5.8009,0.8260034227404583,0,0,0,0,0,0,0,0,,,,,,,,,,,,,0,7,7,14,,,,,,,,,,,,,,,,,,,,,,,,,,,,,,,,,1321.2467634002678,1321.7504730001092,,,,,,,,,,,,,,,,,,,,,,,,,,,,,,,,,,,,,,,,,,,,,,,,,,,,,,,,,,,1320.663426199928,1320.663426199928,1,1,0.5529263000935316,,,,,,,,,,,,,,,,,,,,,,,,,,,,,,,,,,,,,,,,,,sangjun,001,A,2022-10-17_14h26.28.579,psychopy,2022.2.4,60.08766788947518,
1,0,Images/Wedding 6.jpg,1,6.0481,0.533854831214882,0,0,0,0,0,0,0,0,,,,,,,,,,,,,0,8,8,11,,,,,,,,,,,,,,,,,,,,,,,,,,,,,,,,,1322.2963761999272,1322.7966066002846,,,,,,,,,,,,,,,,,,,,,,,,,,,,,,,,,,,,,,,,,,,,,,,,,,,,,,,,,,,1321.7504730001092,1321.7504730001092,1,1,0.5144902998581529,,,,,,,,,,,,,,,,,,,,,,,,,,,,,,,,,,,,,,,,,,sangjun,001,A,2022-10-17_14h26.28.579,psychopy,2022.2.4,60.08766788947518,
1,0,Images/Miserable pose 4.jpg,1,2.5702,0.057736864775737584,0,0,0,0,0,0,0,0,,,,,,,,,,,,,0,9,9,12,,,,,,,,,,,,,,,,,,,,,,,,,,,,,,,,,1323.3134949002415,1323.817004499957,,,,,,,,,,,,,,,,,,,,,,,,,,,,,,,,,,,,,,,,,,,,,,,,,,,,,,,,,,,1322.7966066002846,1322.7966066002846,1,1,0.49913450004532933,,,,,,,,,,,,,,,,,,,,,,,,,,,,,,,,,,,,,,,,,,sangjun,001,A,2022-10-17_14h26.28.579,psychopy,2022.2.4,60.08766788947518,
1,0,Images/Tornado 1.jpg,2,2.1274,0.8898286049774505,0,0,0,0,0,0,0,0,,,,,,,,,,,,,0,10,10,16,,,,,,,,,,,,,,,,,,,,,,,,,,,,,,,,,1324.4969601999037,1324.9980125003494,,,,,,,,,,,,,,,,,,,,,,,,,,,,,,,,,,,,,,,,,,,,,,,,,,,,,,,,,,,1323.817004499957,1323.817004499957,2,1,0.6558983996510506,,,,,,,,,,,,,,,,,,,,,,,,,,,,,,,,,,,,,,,,,,sangjun,001,A,2022-10-17_14h26.28.579,psychopy,2022.2.4,60.08766788947518,
1,0,Images/Snake 4.jpg,1,2.4159,0.32476122568777466,0,0,0,0,0,0,0,0,,,,,,,,,,,,,0,11,11,8,,,,,,,,,,,,,,,,,,,,,,,,,,,,,,,,,1325.8975511002354,1326.3980172001757,,,,,,,,,,,,,,,,,,,,,,,,,,,,,,,,,,,,,,,,,,,,,,,,,,,,,,,,,,,1324.9980125003494,1324.9980125003494,1,1,0.8748767995275557,,,,,,,,,,,,,,,,,,,,,,,,,,,,,,,,,,,,,,,,,,sangjun,001,A,2022-10-17_14h26.28.579,psychopy,2022.2.4,60.08766788947518,
1,0,Images/Cold 8.jpg,2,5.5742,0.1876411890461065,0,0,0,0,0,0,0,0,,,,,,,,,,,,,0,12,12,10,,,,,,,,,,,,,,,,,,,,,,,,,,,,,,,,,1327.246659700293,1327.7466271002777,,,,,,,,,,,,,,,,,,,,,,,,,,,,,,,,,,,,,,,,,,,,,,,,,,,,,,,,,,,1326.3980172001757,1326.3980172001757,2,1,0.8264367999508977,,,,,,,,,,,,,,,,,,,,,,,,,,,,,,,,,,,,,,,,,,sangjun,001,A,2022-10-17_14h26.28.579,psychopy,2022.2.4,60.08766788947518,
1,0,Images/Flowers 1.jpg,2,5.8142,0.854176312029122,0,0,0,0,0,0,0,0,,,,,,,,,,,,,0,13,13,5,,,,,,,,,,,,,,,,,,,,,,,,,,,,,,,,,1328.74672870012,1329.2468504002318,,,,,,,,,,,,,,,,,,,,,,,,,,,,,,,,,,,,,,,,,,,,,,,,,,,,,,,,,,,1327.7466271002777,1327.7466271002777,2,1,0.9731654999777675,,,,,,,,,,,,,,,,,,,,,,,,,,,,,,,,,,,,,,,,,,sangjun,001,A,2022-10-17_14h26.28.579,psychopy,2022.2.4,60.08766788947518,
1,0,Images/Lake 3.jpg,2,5.9732,0.8210013894467229,0,0,0,0,0,0,0,0,,,,,,,,,,,,,0,14,14,2,,,,,,,,,,,,,,,,,,,,,,,,,,,,,,,,,1330.1972333001904,1330.696475900244,,,,,,,,,,,,,,,,,,,,,,,,,,,,,,,,,,,,,,,,,,,,,,,,,,,,,,,,,,,1329.2468504002318,1329.2468504002318,2,1,0.9292924995534122,,,,,,,,,,,,,,,,,,,,,,,,,,,,,,,,,,,,,,,,,,sangjun,001,A,2022-10-17_14h26.28.579,psychopy,2022.2.4,60.08766788947518,
1,0,Images/Sad pose 4.jpg,1,2.8282,0.40245968533442955,0,0,0,0,0,0,0,0,,,,,,,,,,,,,0,15,15,6,,,,,,,,,,,,,,,,,,,,,,,,,,,,,,,,,1332.1966941999272,1332.6968873003498,,,,,,,,,,,,,,,,,,,,,,,,,,,,,,,,,,,,,,,,,,,,,,,,,,,,,,,,,,,1330.696475900244,1330.696475900244,1,1,1.4798729997128248,,,,,,,,,,,,,,,,,,,,,,,,,,,,,,,,,,,,,,,,,,sangjun,001,A,2022-10-17_14h26.28.579,psychopy,2022.2.4,60.08766788947518,
1,0,Images/Bloody knife 1.jpg,2,1.8704,0.2946696303452925,0,0,0,0,0,0,0,0,,,,,,,,,,,,,0,16,16,3,,,,,,,,,,,,,,,,,,,,,,,,,,,,,,,,,1333.830054400023,1334.3294421001337,,,,,,,,,,,,,,,,,,,,,,,,,,,,,,,,,,,,,,,,,,,,,,,,,,,,,,,,,,,1332.6968873003498,1332.6968873003498,2,1,1.103595099877566,,,,,,,,,,,,,,,,,,,,,,,,,,,,,,,,,,,,,,,,,,sangjun,001,A,2022-10-17_14h26.28.579,psychopy,2022.2.4,60.08766788947518,
1,0,Images/Dog 18.jpg,1,6.1614,0.8732426862078547,0,0,0,0,0,0,0,0,,,,,,,,,,,,,0,17,17,15,,,,,,,,,,,,,,,,,,,,,,,,,,,,,,,,,1338.130313300062,1338.6299204002135,,,,,,,,,,,,,,,,,,,,,,,,,,,,,,,,,,,,,,,,,,,,,,,,,,,,,,,,,,,1334.3294421001337,1334.3294421001337,1,1,3.7745718993246555,,,,,,,,,,,,,,,,,,,,,,,,,,,,,,,,,,,,,,,,,,sangjun,001,A,2022-10-17_14h26.28.579,psychopy,2022.2.4,60.08766788947518,
1,0,Images/Wedding 2.jpg,1,5.7601,0.8807101041649952,0,0,0,0,0,0,0,0,,,,,,,,,,,,,0,18,18,17,,,,,,,,,,,,,,,,,,,,,,,,,,,,,,,,,1339.8472430002876,1340.346534000244,,,,,,,,,,,,,,,,,,,,,,,,,,,,,,,,,,,,,,,,,,,,,,,,,,,,,,,,,,,1338.6299204002135,1338.6299204002135,1,1,1.1945691998116672,,,,,,,,,,,,,,,,,,,,,,,,,,,,,,,,,,,,,,,,,,sangjun,001,A,2022-10-17_14h26.28.579,psychopy,2022.2.4,60.08766788947518,
1,0,Images/Mother 1.jpg,1,6.0784,0.07013481274686417,0,0,0,0,0,0,0,0,,,,,,,,,,,,,0,19,19,4,,,,,,,,,,,,,,,,,,,,,,,,,,,,,,,,,1341.1138742999174,1341.6137403999455,,,,,,,,,,,,,,,,,,,,,,,,,,,,,,,,,,,,,,,,,,,,,,,,,,,,,,,,,,,1340.346534000244,1340.346534000244,1,1,0.7494078995659947,,,,,,,,,,,,,,,,,,,,,,,,,,,,,,,,,,,,,,,,,,sangjun,001,A,2022-10-17_14h26.28.579,psychopy,2022.2.4,60.08766788947518,
1,0,Images/Weapon 1.jpg,2,2.8209,0.07897616610586544,0,0,0,0,0,0,0,0,,,,,,,,,,,,,,,,,0,0,0,16,,,,,,,,,,,,,,,,,,,,,,,,,,,,,1345.5629030000418,1346.0648193000816,,,,,,,,,,,,,,,,,,,,,,,,,,,,,,,,,,,,,,,,,,,,,,,,,,1341.6137403999455,1341.6137403999455,space,0.8099340996704996,,,,,,,,,,,1342.4467684002593,1342.4467684002593,2,1,3.098284799605608,,,,,,,,,,,,,,,,,,,,,,,,,,,,,,,,,,,,,sangjun,001,A,2022-10-17_14h26.28.579,psychopy,2022.2.4,60.08766788947518,
1,0,Images/Cat 5.jpg,1,6.1842,0.8734189188876107,0,0,0,0,0,0,0,0,,,,,,,,,,,,,,,,,0,1,1,4,,,,,,,,,,,,,,,,,,,,,,,,,,,,,1353.8972832001746,1354.398380599916,,,,,,,,,,,,,,,,,,,,,,,,,,,,,,,,,,,,,,,,,,,,,,,,,,,,,,,,,,,,,,,,1346.0648193000816,1346.0648193000816,1,1,7.806875299662352,,,,,,,,,,,,,,,,,,,,,,,,,,,,,,,,,,,,,sangjun,001,A,2022-10-17_14h26.28.579,psychopy,2022.2.4,60.08766788947518,
1,0,Images/Gun 10.jpg,2,2.5934,0.6249516916558179,0,0,0,0,0,0,0,0,,,,,,,,,,,,,,,,,0,2,2,6,,,,,,,,,,,,,,,,,,,,,,,,,,,,,1355.0804946003482,1355.5826544999145,,,,,,,,,,,,,,,,,,,,,,,,,,,,,,,,,,,,,,,,,,,,,,,,,,,,,,,,,,,,,,,,1354.398380599916,1354.398380599916,2,1,0.6578865996561944,,,,,,,,,,,,,,,,,,,,,,,,,,,,,,,,,,,,,sangjun,001,A,2022-10-17_14h26.28.579,psychopy,2022.2.4,60.08766788947518,
1,0,Images/Destruction 5.jpg,2,2.1143,0.9285748600835625,0,0,0,0,0,0,0,0,,,,,,,,,,,,,,,,,0,3,3,1,,,,,,,,,,,,,,,,,,,,,,,,,,,,,1356.6632560002618,1357.1632016003132,,,,,,,,,,,,,,,,,,,,,,,,,,,,,,,,,,,,,,,,,,,,,,,,,,,,,,,,,,,,,,,,1355.5826544999145,1355.5826544999145,2,1,1.0575119997374713,,,,,,,,,,,,,,,,,,,,,,,,,,,,,,,,,,,,,sangjun,001,A,2022-10-17_14h26.28.579,psychopy,2022.2.4,60.08766788947518,
1,0,Images/Injury 1.jpg,1,1.9865,0.29640610895424746,0,0,0,0,0,0,0,0,,,,,,,,,,,,,,,,,0,4,4,13,,,,,,,,,,,,,,,,,,,,,,,,,,,,,1359.346323700156,1359.8484213002957,,,,,,,,,,,,,,,,,,,,,,,,,,,,,,,,,,,,,,,,,,,,,,,,,,,,,,,,,,,,,,,,1357.1632016003132,1357.1632016003132,1,1,2.15730999968946,,,,,,,,,,,,,,,,,,,,,,,,,,,,,,,,,,,,,sangjun,001,A,2022-10-17_14h26.28.579,psychopy,2022.2.4,60.08766788947518,
1,0,Images/Injury 4.jpg,1,1.4052,0.650510583503924,0,0,0,0,0,0,0,0,,,,,,,,,,,,,,,,,0,5,5,12,,,,,,,,,,,,,,,,,,,,,,,,,,,,,1366.2642332003452,1366.7783703003079,,,,,,,,,,,,,,,,,,,,,,,,,,,,,,,,,,,,,,,,,,,,,,,,,,,,,,,,,,,,,,,,1359.8484213002957,1359.8484213002957,1,1,6.392918999772519,,,,,,,,,,,,,,,,,,,,,,,,,,,,,,,,,,,,,sangjun,001,A,2022-10-17_14h26.28.579,psychopy,2022.2.4,60.08766788947518,
1,0,Images/Scared face 3.jpg,1,3.0377,0.7444931199870081,0,0,0,0,0,0,0,0,,,,,,,,,,,,,,,,,0,6,6,5,,,,,,,,,,,,,,,,,,,,,,,,,,,,,1367.5806490001269,1368.0826129000634,,,,,,,,,,,,,,,,,,,,,,,,,,,,,,,,,,,,,,,,,,,,,,,,,,,,,,,,,,,,,,,,1366.7783703003079,1366.7783703003079,1,1,0.783134900033474,,,,,,,,,,,,,,,,,,,,,,,,,,,,,,,,,,,,,sangjun,001,A,2022-10-17_14h26.28.579,psychopy,2022.2.4,60.08766788947518,
1,0,Images/Dirt 1.jpg,2,1.6168,0.3257823652655115,0,0,0,0,0,0,0,0,,,,,,,,,,,,,,,,,0,7,7,0,,,,,,,,,,,,,,,,,,,,,,,,,,,,,1369.196326999925,,,,,,,,,,,,,,,,,,,,,,,,,,,,,,,,,,,,,,,,,,,,,,,,,,,,,,,,,,,,,,,,,1368.0826129000634,1368.0826129000634,2,1,1.0854645995423198,,,,,,,,,,,,,,,,,,,,,,,,,,,,,,,,,,,,,sangjun,001,A,2022-10-17_14h26.28.579,psychopy,2022.2.4,60.08766788947518,
1,0,Images/Frustrated pose 5.jpg,1,2.481,0.284911079025962,0,0,0,0,0,0,0,0,,,,,,,,,,,,,,,,,0,8,8,10,,,,,,,,,,,,,,,,,,,,,,,,,,,,,1370.6800005999394,1371.1802387000062,,,,,,,,,,,,,,,,,,,,,,,,,,,,,,,,,,,,,,,,,,,,,,,,,,,,,,,,,,,,,,,,1369.6963186003268,1369.6963186003268,1,1,0.9514680993743241,,,,,,,,,,,,,,,,,,,,,,,,,,,,,,,,,,,,,sangjun,001,A,2022-10-17_14h26.28.579,psychopy,2022.2.4,60.08766788947518,
1,0,Images/Destruction 10.jpg,2,2.0682,0.6155638969002186,0,0,0,0,0,0,0,0,,,,,,,,,,,,,,,,,0,9,9,9,,,,,,,,,,,,,,,,,,,,,,,,,,,,,1371.8799662003294,1372.3798402003013,,,,,,,,,,,,,,,,,,,,,,,,,,,,,,,,,,,,,,,,,,,,,,,,,,,,,,,,,,,,,,,,1371.1802387000062,1371.1802387000062,2,1,0.6762166996486485,,,,,,,,,,,,,,,,,,,,,,,,,,,,,,,,,,,,,sangjun,001,A,2022-10-17_14h26.28.579,psychopy,2022.2.4,60.08766788947518,
1,0,Images/Tornado 4.jpg,2,2.7192,0.3587480909327039,0,0,0,0,0,0,0,0,,,,,,,,,,,,,,,,,0,10,10,2,,,,,,,,,,,,,,,,,,,,,,,,,,,,,1373.1634223000146,1373.663753699977,,,,,,,,,,,,,,,,,,,,,,,,,,,,,,,,,,,,,,,,,,,,,,,,,,,,,,,,,,,,,,,,1372.3798402003013,1372.3798402003013,2,1,0.7641552998684347,,,,,,,,,,,,,,,,,,,,,,,,,,,,,,,,,,,,,sangjun,001,A,2022-10-17_14h26.28.579,psychopy,2022.2.4,60.08766788947518,
1,0,Images/Frustrated pose 1.jpg,1,2.3937,0.539669640991782,0,0,0,0,0,0,0,0,,,,,,,,,,,,,,,,,0,11,11,3,,,,,,,,,,,,,,,,,,,,,,,,,,,,,1374.5967280999757,1375.0965227000415,,,,,,,,,,,,,,,,,,,,,,,,,,,,,,,,,,,,,,,,,,,,,,,,,,,,,,,,,,,,,,,,1373.663753699977,1373.663753699977,1,1,0.9118645996786654,,,,,,,,,,,,,,,,,,,,,,,,,,,,,,,,,,,,,sangjun,001,A,2022-10-17_14h26.28.579,psychopy,2022.2.4,60.08766788947518,
1,0,Images/Wedding 4.jpg,2,5.8256,0.4039545616996858,0,0,0,0,0,0,0,0,,,,,,,,,,,,,,,,,0,12,12,19,,,,,,,,,,,,,,,,,,,,,,,,,,,,,1376.0469718002714,1376.5469742002897,,,,,,,,,,,,,,,,,,,,,,,,,,,,,,,,,,,,,,,,,,,,,,,,,,,,,,,,,,,,,,,,1375.0965227000415,1375.0965227000415,2,1,0.9283278998918831,,,,,,,,,,,,,,,,,,,,,,,,,,,,,,,,,,,,,sangjun,001,A,2022-10-17_14h26.28.579,psychopy,2022.2.4,60.08766788947518,
1,0,Images/Bird 1.jpg,1,5.9051,0.05927986447304767,0,0,0,0,0,0,0,0,,,,,,,,,,,,,,,,,0,13,13,15,,,,,,,,,,,,,,,,,,,,,,,,,,,,,1377.4632051000372,1377.9642508001998,,,,,,,,,,,,,,,,,,,,,,,,,,,,,,,,,,,,,,,,,,,,,,,,,,,,,,,,,,,,,,,,1376.5469742002897,1376.5469742002897,1,1,0.8936635996215045,,,,,,,,,,,,,,,,,,,,,,,,,,,,,,,,,,,,,sangjun,001,A,2022-10-17_14h26.28.579,psychopy,2022.2.4,60.08766788947518,
1,0,Images/Jail 5.jpg,2,3.0599,0.9604833218127168,0,0,0,0,0,0,0,0,,,,,,,,,,,,,,,,,0,14,14,7,,,,,,,,,,,,,,,,,,,,,,,,,,,,,1378.5636082002893,1379.0636693001725,,,,,,,,,,,,,,,,,,,,,,,,,,,,,,,,,,,,,,,,,,,,,,,,,,,,,,,,,,,,,,,,1377.9642508001998,1377.9642508001998,2,1,0.5804381994530559,,,,,,,,,,,,,,,,,,,,,,,,,,,,,,,,,,,,,sangjun,001,A,2022-10-17_14h26.28.579,psychopy,2022.2.4,60.08766788947518,
1,0,Images/Rainbow 1.jpg,2,6.2286,0.8334893245661121,0,0,0,0,0,0,0,0,,,,,,,,,,,,,,,,,0,15,15,8,,,,,,,,,,,,,,,,,,,,,,,,,,,,,1379.6801557000726,1380.1870586001314,,,,,,,,,,,,,,,,,,,,,,,,,,,,,,,,,,,,,,,,,,,,,,,,,,,,,,,,,,,,,,,,1379.0636693001725,1379.0636693001725,2,1,0.5847967993468046,,,,,,,,,,,,,,,,,,,,,,,,,,,,,,,,,,,,,sangjun,001,A,2022-10-17_14h26.28.579,psychopy,2022.2.4,60.08766788947518,
1,0,Images/Nature 1.jpg,2,6.1726,0.3509454205294409,0,0,0,0,0,0,0,0,,,,,,,,,,,,,,,,,0,16,16,17,,,,,,,,,,,,,,,,,,,,,,,,,,,,,1381.580246000085,1382.0815904000774,,,,,,,,,,,,,,,,,,,,,,,,,,,,,,,,,,,,,,,,,,,,,,,,,,,,,,,,,,,,,,,,1380.1870586001314,1380.1870586001314,2,1,1.3649185998365283,,,,,,,,,,,,,,,,,,,,,,,,,,,,,,,,,,,,,sangjun,001,A,2022-10-17_14h26.28.579,psychopy,2022.2.4,60.08766788947518,
1,0,Images/Galaxy 4.jpg,2,5.4342,0.4738315083534038,0,0,0,0,0,0,0,0,,,,,,,,,,,,,,,,,0,17,17,18,,,,,,,,,,,,,,,,,,,,,,,,,,,,,1382.879713000264,1383.3823695001192,,,,,,,,,,,,,,,,,,,,,,,,,,,,,,,,,,,,,,,,,,,,,,,,,,,,,,,,,,,,,,,,1382.0815904000774,1382.0815904000774,2,1,0.7751729995943606,,,,,,,,,,,,,,,,,,,,,,,,,,,,,,,,,,,,,sangjun,001,A,2022-10-17_14h26.28.579,psychopy,2022.2.4,60.08766788947518,
1,0,Images/Flowers 7.jpg,2,5.7452,0.44281787897919234,0,0,0,0,0,0,0,0,,,,,,,,,,,,,,,,,0,18,18,14,,,,,,,,,,,,,,,,,,,,,,,,,,,,,1383.9477729001082,1384.4464052999392,,,,,,,,,,,,,,,,,,,,,,,,,,,,,,,,,,,,,,,,,,,,,,,,,,,,,,,,,,,,,,,,1383.3823695001192,1383.3823695001192,2,1,0.5462481998838484,,,,,,,,,,,,,,,,,,,,,,,,,,,,,,,,,,,,,sangjun,001,A,2022-10-17_14h26.28.579,psychopy,2022.2.4,60.08766788947518,
1,0,Images/Dog 19.jpg,1,5.9814,0.13359866761789518,0,0,0,0,0,0,0,0,,,,,,,,,,,,,,,,,0,19,19,11,,,,,,,,,,,,,,,,,,,,,,,,,,,,,1385.5635009999387,1386.0636318000033,,,,,,,,,,,,,,,,,,,,,,,,,,,,,,,,,,,,,,,,,,,,,,,,,,,,,,,,,,,,,,,,1384.4464052999392,1384.4464052999392,1,1,1.0982794999144971,,,,,,,,,,,,,,,,,,,,,,,,,,,,,,,,,,,,,sangjun,001,A,2022-10-17_14h26.28.579,psychopy,2022.2.4,60.08766788947518,
1,0,,,,,0,0,0,0,0,0,0,0,,,,,,,,,,,,,,,,,,,,,,,,,,,,,,,,,,,,,,,,,,,,,,,,,,,,,,,,,,,,,,,,,,,,,,,,,,,,,,,,,,,,,,,,,,,,,,,,,,,,,,,,,,,,,,,,,,,,,,,,,,,,,,,,,,,,,,,,,,,,,,,,,,,,,,,,,,,sangjun,001,A,2022-10-17_14h26.28.579,psychopy,2022.2.4,60.08766788947518,
0,1,Images/Sad face 1.jpg,2,,,0,1,1,1,,,,,,,,,,,,,,,,,,,,,,,,,0,0,0,0,0,0,0,3,,,,,,,,,,,,,,,,,,,,,1502.6808585003018,1503.1799314003438,,,,,,,,,,,,,,,,,,,,,,,,,,,,,,,,,,,,,,,,,,,,,,,,,,,,,,,,,,,,,,,,,,,,,1386.0636318000033,1386.0636318000033,space,115.43262959970161,1501.5249793999828,1501.5249793999828,1,1.1308171995915473,,,,,,,,,,,,,,,,,,,,,,,,,,,,,sangjun,001,A,2022-10-17_14h26.28.579,psychopy,2022.2.4,60.08766788947518,
0,1,Images/Wedding 7.jpg,1,,,0,1,1,1,,,,,,,,,,,,,,,,,,,,,,,,,0,0,0,0,0,1,1,6,,,,,,,,,,,,,,,,,,,,,1503.963773400057,1504.463182900101,,,,,,,,,,,,,,,,,,,,,,,,,,,,,,,,,,,,,,,,,,,,,,,,,,,,,,,,,,,,,,,,,,,,,,,,,1503.1799314003438,1503.1799314003438,2,0.7566835996694863,,,,,,,,,,,,,,,,,,,,,,,,,,,,,sangjun,001,A,2022-10-17_14h26.28.579,psychopy,2022.2.4,60.08766788947518,
0,1,Images/Surprise 2.jpg,2,,,0,1,1,1,,,,,,,,,,,,,,,,,,,,,,,,,0,0,0,0,0,2,2,0,,,,,,,,,,,,,,,,,,,,,1505.130035799928,1505.6301768999547,,,,,,,,,,,,,,,,,,,,,,,,,,,,,,,,,,,,,,,,,,,,,,,,,,,,,,,,,,,,,,,,,,,,,,,,,1504.463182900101,1504.463182900101,1,0.6414356995373964,,,,,,,,,,,,,,,,,,,,,,,,,,,,,sangjun,001,A,2022-10-17_14h26.28.579,psychopy,2022.2.4,60.08766788947518,
0,1,Images/Shark 7.jpg,2,,,0,1,1,1,,,,,,,,,,,,,,,,,,,,,,,,,0,0,0,0,0,3,3,2,,,,,,,,,,,,,,,,,,,,,1506.2466442002915,1506.7480903002433,,,,,,,,,,,,,,,,,,,,,,,,,,,,,,,,,,,,,,,,,,,,,,,,,,,,,,,,,,,,,,,,,,,,,,,,,1505.6301768999547,1505.6301768999547,1,0.5858221999369562,,,,,,,,,,,,,,,,,,,,,,,,,,,,,sangjun,001,A,2022-10-17_14h26.28.579,psychopy,2022.2.4,60.08766788947518,
0,1,Images/Tiger 2.jpg,2,,,0,1,1,1,,,,,,,,,,,,,,,,,,,,,,,,,0,0,0,0,0,4,4,1,,,,,,,,,,,,,,,,,,,,,1507.4968882002868,1507.996567999944,,,,,,,,,,,,,,,,,,,,,,,,,,,,,,,,,,,,,,,,,,,,,,,,,,,,,,,,,,,,,,,,,,,,,,,,,1506.7480903002433,1506.7480903002433,1,0.716393799521029,,,,,,,,,,,,,,,,,,,,,,,,,,,,,sangjun,001,A,2022-10-17_14h26.28.579,psychopy,2022.2.4,60.08766788947518,
0,1,Images/Pigeon 4.jpg,2,,,0,1,1,1,,,,,,,,,,,,,,,,,,,,,,,,,0,0,0,0,0,5,5,4,,,,,,,,,,,,,,,,,,,,,1508.8633055002429,1509.36371350009,,,,,,,,,,,,,,,,,,,,,,,,,,,,,,,,,,,,,,,,,,,,,,,,,,,,,,,,,,,,,,,,,,,,,,,,,1507.996567999944,1507.996567999944,1,0.8353107995353639,,,,,,,,,,,,,,,,,,,,,,,,,,,,,sangjun,001,A,2022-10-17_14h26.28.579,psychopy,2022.2.4,60.08766788947518,
0,1,Images/Socks 1.jpg,1,,,0,1,1,1,,,,,,,,,,,,,,,,,,,,,,,,,0,0,0,0,0,6,6,8,,,,,,,,,,,,,,,,,,,,,1510.079701000359,1510.5812047999352,,,,,,,,,,,,,,,,,,,,,,,,,,,,,,,,,,,,,,,,,,,,,,,,,,,,,,,,,,,,,,,,,,,,,,,,,1509.36371350009,1509.36371350009,2,0.6927542993798852,,,,,,,,,,,,,,,,,,,,,,,,,,,,,sangjun,001,A,2022-10-17_14h26.28.579,psychopy,2022.2.4,60.08766788947518,
0,1,Images/Rocks 3.jpg,1,,,0,1,1,1,,,,,,,,,,,,,,,,,,,,,,,,,0,0,0,0,0,7,7,9,,,,,,,,,,,,,,,,,,,,,1511.0795056000352,1511.5800553001463,,,,,,,,,,,,,,,,,,,,,,,,,,,,,,,,,,,,,,,,,,,,,,,,,,,,,,,,,,,,,,,,,,,,,,,,,1510.5812047999352,1510.5812047999352,2,0.4661819995380938,,,,,,,,,,,,,,,,,,,,,,,,,,,,,sangjun,001,A,2022-10-17_14h26.28.579,psychopy,2022.2.4,60.08766788947518,
0,1,Images/Yarn 4.jpg,1,,,0,1,1,1,,,,,,,,,,,,,,,,,,,,,,,,,0,0,0,0,0,8,8,5,,,,,,,,,,,,,,,,,,,,,1512.0470976000652,1512.5493371002376,,,,,,,,,,,,,,,,,,,,,,,,,,,,,,,,,,,,,,,,,,,,,,,,,,,,,,,,,,,,,,,,,,,,,,,,,1511.5800553001463,1511.5800553001463,2,0.43574339943006635,,,,,,,,,,,,,,,,,,,,,,,,,,,,,sangjun,001,A,2022-10-17_14h26.28.579,psychopy,2022.2.4,60.08766788947518,
0,1,Images/Storage 3.jpg,1,,,0,1,1,1,,,,,,,,,,,,,,,,,,,,,,,,,0,0,0,0,0,9,9,7,,,,,,,,,,,,,,,,,,,,,1513.07971250033,1513.5796897001565,,,,,,,,,,,,,,,,,,,,,,,,,,,,,,,,,,,,,,,,,,,,,,,,,,,,,,,,,,,,,,,,,,,,,,,,,1512.5493371002376,1512.5493371002376,2,0.49922019988298416,,,,,,,,,,,,,,,,,,,,,,,,,,,,,sangjun,001,A,2022-10-17_14h26.28.579,psychopy,2022.2.4,60.08766788947518,
0,1,Images/Explosion 1.jpg,1,2.7061,0.13465869768632377,0,1,1,1,,,,,,,,,,,,,,,,,,,,,,,,,0,0,0,0,,,,,0,0,0,17,,,,,,,,,,,,,,,,,1516.4800582001917,1516.9803074002266,,,,,,,,,,,,,,,,,,,,,,,,,,,,,,,,,,,,,,,,,,,,,,,,,,,,,,,,,,,,,,,,,,,,,,,,,,,,,1513.5796897001565,1513.5796897001565,space,1.6456013997085392,1515.288104900159,1515.288104900159,2,0,1.1752142999321222,,,,,,,,,,,,,,,,,,,,sangjun,001,A,2022-10-17_14h26.28.579,psychopy,2022.2.4,60.08766788947518,
0,1,Images/Intensity 1.jpg,2,2.8252,0.9103573554148229,0,1,1,1,,,,,,,,,,,,,,,,,,,,,,,,,0,0,0,0,,,,,0,1,1,16,,,,,,,,,,,,,,,,,1517.6630379003473,1518.163299500011,,,,,,,,,,,,,,,,,,,,,,,,,,,,,,,,,,,,,,,,,,,,,,,,,,,,,,,,,,,,,,,,,,,,,,,,,,,,,,,,,1516.9803074002266,1516.9803074002266,1,0,0.6518716998398304,,,,,,,,,,,,,,,,,,,,sangjun,001,A,2022-10-17_14h26.28.579,psychopy,2022.2.4,60.08766788947518,
0,1,Images/Yarn 1.jpg,1,2.5645,0.9087927786187595,0,1,1,1,,,,,,,,,,,,,,,,,,,,,,,,,0,0,0,0,,,,,0,2,2,8,,,,,,,,,,,,,,,,,1518.7467432003468,1519.2462520999834,,,,,,,,,,,,,,,,,,,,,,,,,,,,,,,,,,,,,,,,,,,,,,,,,,,,,,,,,,,,,,,,,,,,,,,,,,,,,,,,,1518.163299500011,1518.163299500011,2,0,0.5640838998369873,,,,,,,,,,,,,,,,,,,,sangjun,001,A,2022-10-17_14h26.28.579,psychopy,2022.2.4,60.08766788947518,
0,1,Images/Horse 1.jpg,2,5.9469,0.3760306701871555,0,1,1,1,,,,,,,,,,,,,,,,,,,,,,,,,0,0,0,0,,,,,0,3,3,15,,,,,,,,,,,,,,,,,1519.897179200314,1520.3981186002493,,,,,,,,,,,,,,,,,,,,,,,,,,,,,,,,,,,,,,,,,,,,,,,,,,,,,,,,,,,,,,,,,,,,,,,,,,,,,,,,,1519.2462520999834,1519.2462520999834,1,0,0.618558899499476,,,,,,,,,,,,,,,,,,,,sangjun,001,A,2022-10-17_14h26.28.579,psychopy,2022.2.4,60.08766788947518,
0,1,Images/Baby 6.jpg,2,6.0604,0.7516402056790349,0,1,1,1,,,,,,,,,,,,,,,,,,,,,,,,,0,0,0,0,,,,,0,4,4,5,,,,,,,,,,,,,,,,,1520.880302700214,1521.380995000247,,,,,,,,,,,,,,,,,,,,,,,,,,,,,,,,,,,,,,,,,,,,,,,,,,,,,,,,,,,,,,,,,,,,,,,,,,,,,,,,,1520.3981186002493,1520.3981186002493,1,0,0.4507343997247517,,,,,,,,,,,,,,,,,,,,sangjun,001,A,2022-10-17_14h26.28.579,psychopy,2022.2.4,60.08766788947518,
0,1,Images/Toilet 4.jpg,1,2.4986,0.24701919740172684,0,1,1,1,,,,,,,,,,,,,,,,,,,,,,,,,0,0,0,0,,,,,0,5,5,7,,,,,,,,,,,,,,,,,1522.4136227001436,1522.9175936002284,,,,,,,,,,,,,,,,,,,,,,,,,,,,,,,,,,,,,,,,,,,,,,,,,,,,,,,,,,,,,,,,,,,,,,,,,,,,,,,,,1521.380995000247,1521.380995000247,2,0,1.0118015999905765,,,,,,,,,,,,,,,,,,,,sangjun,001,A,2022-10-17_14h26.28.579,psychopy,2022.2.4,60.08766788947518,
0,1,Images/Neonazi 1.jpg,2,2.0577,0.2661110498977508,0,1,1,1,,,,,,,,,,,,,,,,,,,,,,,,,0,0,0,0,,,,,0,6,6,6,,,,,,,,,,,,,,,,,1523.680475000292,1524.1823042999022,,,,,,,,,,,,,,,,,,,,,,,,,,,,,,,,,,,,,,,,,,,,,,,,,,,,,,,,,,,,,,,,,,,,,,,,,,,,,,,,,1522.9175936002284,1522.9175936002284,1,0,0.7386382995173335,,,,,,,,,,,,,,,,,,,,sangjun,001,A,2022-10-17_14h26.28.579,psychopy,2022.2.4,60.08766788947518,
0,1,Images/Miserable pose 1.jpg,2,2.579,0.7024555430911605,0,1,1,1,,,,,,,,,,,,,,,,,,,,,,,,,0,0,0,0,,,,,0,7,7,13,,,,,,,,,,,,,,,,,1524.8971033999696,1525.3992289002053,,,,,,,,,,,,,,,,,,,,,,,,,,,,,,,,,,,,,,,,,,,,,,,,,,,,,,,,,,,,,,,,,,,,,,,,,,,,,,,,,1524.1823042999022,1524.1823042999022,1,0,0.6894423998892307,,,,,,,,,,,,,,,,,,,,sangjun,001,A,2022-10-17_14h26.28.579,psychopy,2022.2.4,60.08766788947518,
0,1,Images/Explosion 4.jpg,1,2.4912,0.37218646222486884,0,1,1,1,,,,,,,,,,,,,,,,,,,,,,,,,0,0,0,0,,,,,0,8,8,18,,,,,,,,,,,,,,,,,1525.9135544002056,1526.4131515999325,,,,,,,,,,,,,,,,,,,,,,,,,,,,,,,,,,,,,,,,,,,,,,,,,,,,,,,,,,,,,,,,,,,,,,,,,,,,,,,,,1525.3992289002053,1525.3992289002053,2,0,0.4892630996182561,,,,,,,,,,,,,,,,,,,,sangjun,001,A,2022-10-17_14h26.28.579,psychopy,2022.2.4,60.08766788947518,
0,1,Images/Fire 7.jpg,1,1.7007,0.2575505223871397,0,1,1,1,,,,,,,,,,,,,,,,,,,,,,,,,0,0,0,0,,,,,0,9,9,0,,,,,,,,,,,,,,,,,1527.0797153003514,1527.5953994002193,,,,,,,,,,,,,,,,,,,,,,,,,,,,,,,,,,,,,,,,,,,,,,,,,,,,,,,,,,,,,,,,,,,,,,,,,,,,,,,,,1526.4131515999325,1526.4131515999325,2,0,0.6360630998387933,,,,,,,,,,,,,,,,,,,,sangjun,001,A,2022-10-17_14h26.28.579,psychopy,2022.2.4,60.08766788947518,
0,1,Images/Police 5.jpg,2,2.4345,0.6054784475062427,0,1,1,1,,,,,,,,,,,,,,,,,,,,,,,,,0,0,0,0,,,,,0,10,10,3,,,,,,,,,,,,,,,,,1528.2628759001382,,,,,,,,,,,,,,,,,,,,,,,,,,,,,,,,,,,,,,,,,,,,,,,,,,,,,,,,,,,,,,,,,,,,,,,,,,,,,,,,,,1527.5953994002193,1527.5953994002193,1,0,0.6443957993760705,,,,,,,,,,,,,,,,,,,,sangjun,001,A,2022-10-17_14h26.28.579,psychopy,2022.2.4,60.08766788947518,
0,1,Images/Picnic 1.jpg,2,6.0998,0.8333126648555074,0,1,1,1,,,,,,,,,,,,,,,,,,,,,,,,,0,0,0,0,,,,,0,11,11,10,,,,,,,,,,,,,,,,,1529.3468806999736,1529.8494094000198,,,,,,,,,,,,,,,,,,,,,,,,,,,,,,,,,,,,,,,,,,,,,,,,,,,,,,,,,,,,,,,,,,,,,,,,,,,,,,,,,1528.7662352002226,1528.7662352002226,1,0,0.553503199480474,,,,,,,,,,,,,,,,,,,,sangjun,001,A,2022-10-17_14h26.28.579,psychopy,2022.2.4,60.08766788947518,
0,1,Images/Birthday 3.jpg,1,5.5506,0.319524409358253,0,1,1,1,,,,,,,,,,,,,,,,,,,,,,,,,0,0,0,0,,,,,0,12,12,1,,,,,,,,,,,,,,,,,1530.4967416999862,1530.9980347999372,,,,,,,,,,,,,,,,,,,,,,,,,,,,,,,,,,,,,,,,,,,,,,,,,,,,,,,,,,,,,,,,,,,,,,,,,,,,,,,,,1529.8494094000198,1529.8494094000198,2,0,0.6148271993733943,,,,,,,,,,,,,,,,,,,,sangjun,001,A,2022-10-17_14h26.28.579,psychopy,2022.2.4,60.08766788947518,
0,1,Images/Massage 2.jpg,2,5.7288,0.884560452207011,0,1,1,1,,,,,,,,,,,,,,,,,,,,,,,,,0,0,0,0,,,,,0,13,13,12,,,,,,,,,,,,,,,,,1531.7466033999808,1532.2468285001814,,,,,,,,,,,,,,,,,,,,,,,,,,,,,,,,,,,,,,,,,,,,,,,,,,,,,,,,,,,,,,,,,,,,,,,,,,,,,,,,,1530.9980347999372,1530.9980347999372,1,0,0.721779799554497,,,,,,,,,,,,,,,,,,,,sangjun,001,A,2022-10-17_14h26.28.579,psychopy,2022.2.4,60.08766788947518,
0,1,Images/Bird 3.jpg,2,6.0495,0.012961172525481013,0,1,1,1,,,,,,,,,,,,,,,,,,,,,,,,,0,0,0,0,,,,,0,14,14,9,,,,,,,,,,,,,,,,,1532.9302407000214,1533.4295220002532,,,,,,,,,,,,,,,,,,,,,,,,,,,,,,,,,,,,,,,,,,,,,,,,,,,,,,,,,,,,,,,,,,,,,,,,,,,,,,,,,1532.2468285001814,1532.2468285001814,1,0,0.6644481993280351,,,,,,,,,,,,,,,,,,,,sangjun,001,A,2022-10-17_14h26.28.579,psychopy,2022.2.4,60.08766788947518,
0,1,Images/Jail 2.jpg,1,1.9691,0.8398600376243888,0,1,1,1,,,,,,,,,,,,,,,,,,,,,,,,,0,0,0,0,,,,,0,15,15,4,,,,,,,,,,,,,,,,,1534.0304785002954,1534.5298403003253,,,,,,,,,,,,,,,,,,,,,,,,,,,,,,,,,,,,,,,,,,,,,,,,,,,,,,,,,,,,,,,,,,,,,,,,,,,,,,,,,1533.4295220002532,1533.4295220002532,2,0,0.5794995999895036,,,,,,,,,,,,,,,,,,,,sangjun,001,A,2022-10-17_14h26.28.579,psychopy,2022.2.4,60.08766788947518,
0,1,Images/Mother 5.jpg,2,5.9438,0.0898926956017535,0,1,1,1,,,,,,,,,,,,,,,,,,,,,,,,,0,0,0,0,,,,,0,16,16,14,,,,,,,,,,,,,,,,,1535.079983000178,1535.5798929003067,,,,,,,,,,,,,,,,,,,,,,,,,,,,,,,,,,,,,,,,,,,,,,,,,,,,,,,,,,,,,,,,,,,,,,,,,,,,,,,,,1534.5298403003253,1534.5298403003253,1,0,0.5181929995305836,,,,,,,,,,,,,,,,,,,,sangjun,001,A,2022-10-17_14h26.28.579,psychopy,2022.2.4,60.08766788947518,
0,1,Images/Soldiers 7.jpg,2,2.5465,0.2696768289046516,0,1,1,1,,,,,,,,,,,,,,,,,,,,,,,,,0,0,0,0,,,,,0,17,17,2,,,,,,,,,,,,,,,,,1536.1632677000016,1536.663183100056,,,,,,,,,,,,,,,,,,,,,,,,,,,,,,,,,,,,,,,,,,,,,,,,,,,,,,,,,,,,,,,,,,,,,,,,,,,,,,,,,1535.5798929003067,1535.5798929003067,1,0,0.5652389000169933,,,,,,,,,,,,,,,,,,,,sangjun,001,A,2022-10-17_14h26.28.579,psychopy,2022.2.4,60.08766788947518,
0,1,Images/Sad pose 1.jpg,2,2.8801,0.19381369440426544,0,1,1,1,,,,,,,,,,,,,,,,,,,,,,,,,0,0,0,0,,,,,0,18,18,11,,,,,,,,,,,,,,,,,1537.1463338001631,1537.6463279002346,,,,,,,,,,,,,,,,,,,,,,,,,,,,,,,,,,,,,,,,,,,,,,,,,,,,,,,,,,,,,,,,,,,,,,,,,,,,,,,,,1536.663183100056,1536.663183100056,1,0,0.4565397994592786,,,,,,,,,,,,,,,,,,,,sangjun,001,A,2022-10-17_14h26.28.579,psychopy,2022.2.4,60.08766788947518,
0,1,Images/Sidewalk 6.jpg,1,2.7978,0.47506612754185906,0,1,1,1,,,,,,,,,,,,,,,,,,,,,,,,,0,0,0,0,,,,,0,19,19,19,,,,,,,,,,,,,,,,,1538.1630779001862,,,,,,,,,,,,,,,,,,,,,,,,,,,,,,,,,,,,,,,,,,,,,,,,,,,,,,,,,,,,,,,,,,,,,,,,,,,,,,,,,,1537.6463279002346,1537.6463279002346,2,0,0.4969604997895658,,,,,,,,,,,,,,,,,,,,sangjun,001,A,2022-10-17_14h26.28.579,psychopy,2022.2.4,60.08766788947518,
0,1,Images/Couple 8.jpg,2,5.7678,0.2950874497117757,0,1,1,1,,,,,,,,,,,,,,,,,,,,,,,,,0,0,0,0,,,,,,,,,0,0,0,8,,,,,,,,,,,,,1539.9968882002868,1540.4981746999547,,,,,,,,,,,,,,,,,,,,,,,,,,,,,,,,,,,,,,,,,,,,,,,,,,1538.6641035000794,1538.6641035000794,space,0.5672197993844748,,,,,,,,,,,,,,,,,,,,,,,,,,,,,,,,,1539.2754301000386,1539.2754301000386,1,0,0.6931763999164104,,,,,,,,,,,,,,,sangjun,001,A,2022-10-17_14h26.28.579,psychopy,2022.2.4,60.08766788947518,
0,1,Images/Garbage dump 3.jpg,1,2.0219,0.350393201470347,0,1,1,1,,,,,,,,,,,,,,,,,,,,,,,,,0,0,0,0,,,,,,,,,0,1,1,12,,,,,,,,,,,,,1541.0135242003016,1541.515095599927,,,,,,,,,,,,,,,,,,,,,,,,,,,,,,,,,,,,,,,,,,,,,,,,,,,,,,,,,,,,,,,,,,,,,,,,,,,,,,,,,,,,,,1540.4981746999547,1540.4981746999547,2,0,0.49361349968239665,,,,,,,,,,,,,,,sangjun,001,A,2022-10-17_14h26.28.579,psychopy,2022.2.4,60.08766788947518,
0,1,Images/Dog 2.jpg,2,5.9348,0.8224751356721797,0,1,1,1,,,,,,,,,,,,,,,,,,,,,,,,,0,0,0,0,,,,,,,,,0,2,2,14,,,,,,,,,,,,,1541.9800108000636,1542.481607499998,,,,,,,,,,,,,,,,,,,,,,,,,,,,,,,,,,,,,,,,,,,,,,,,,,,,,,,,,,,,,,,,,,,,,,,,,,,,,,,,,,,,,,1541.515095599927,1541.515095599927,1,0,0.4373307996429503,,,,,,,,,,,,,,,sangjun,001,A,2022-10-17_14h26.28.579,psychopy,2022.2.4,60.08766788947518,
0,1,Images/Dead bodies 2.jpg,2,1.2275,0.1919382765632477,0,1,1,1,,,,,,,,,,,,,,,,,,,,,,,,,0,0,0,0,,,,,,,,,0,3,3,13,,,,,,,,,,,,,1543.0308980001137,1543.5302319000475,,,,,,,,,,,,,,,,,,,,,,,,,,,,,,,,,,,,,,,,,,,,,,,,,,,,,,,,,,,,,,,,,,,,,,,,,,,,,,,,,,,,,,1542.481607499998,1542.481607499998,1,0,0.5185446999967098,,,,,,,,,,,,,,,sangjun,001,A,2022-10-17_14h26.28.579,psychopy,2022.2.4,60.08766788947518,
0,1,Images/Miserable pose 5.jpg,2,2.9754,0.8891439707630439,0,1,1,1,,,,,,,,,,,,,,,,,,,,,,,,,0,0,0,0,,,,,,,,,0,4,4,19,,,,,,,,,,,,,1543.9800905003212,1544.480314000044,,,,,,,,,,,,,,,,,,,,,,,,,,,,,,,,,,,,,,,,,,,,,,,,,,,,,,,,,,,,,,,,,,,,,,,,,,,,,,,,,,,,,,1543.5302319000475,1543.5302319000475,1,0,0.429919499438256,,,,,,,,,,,,,,,sangjun,001,A,2022-10-17_14h26.28.579,psychopy,2022.2.4,60.08766788947518,
0,1,Images/Frustrated pose 2.jpg,2,2.6481,0.9835247849574866,0,1,1,1,,,,,,,,,,,,,,,,,,,,,,,,,0,0,0,0,,,,,,,,,0,5,5,9,,,,,,,,,,,,,1544.8804415999912,1545.3799554002471,,,,,,,,,,,,,,,,,,,,,,,,,,,,,,,,,,,,,,,,,,,,,,,,,,,,,,,,,,,,,,,,,,,,,,,,,,,,,,,,,,,,,,1544.480314000044,1544.480314000044,1,0,0.3756741997785866,,,,,,,,,,,,,,,sangjun,001,A,2022-10-17_14h26.28.579,psychopy,2022.2.4,60.08766788947518,
0,1,Images/Flowers 9.jpg,1,5.9383,0.9019314780175947,0,1,1,1,,,,,,,,,,,,,,,,,,,,,,,,,0,0,0,0,,,,,,,,,0,6,6,16,,,,,,,,,,,,,1545.8801557999104,1546.379434400238,,,,,,,,,,,,,,,,,,,,,,,,,,,,,,,,,,,,,,,,,,,,,,,,,,,,,,,,,,,,,,,,,,,,,,,,,,,,,,,,,,,,,,1545.3799554002471,1545.3799554002471,2,0,0.47660449938848615,,,,,,,,,,,,,,,sangjun,001,A,2022-10-17_14h26.28.579,psychopy,2022.2.4,60.08766788947518,
0,1,Images/Gun 4.jpg,1,2.9016,0.4797988948390023,0,1,1,1,,,,,,,,,,,,,,,,,,,,,,,,,0,0,0,0,,,,,,,,,0,7,7,15,,,,,,,,,,,,,1546.9469035002403,1547.4469603002071,,,,,,,,,,,,,,,,,,,,,,,,,,,,,,,,,,,,,,,,,,,,,,,,,,,,,,,,,,,,,,,,,,,,,,,,,,,,,,,,,,,,,,1546.379434400238,1546.379434400238,2,0,0.5403249994851649,,,,,,,,,,,,,,,sangjun,001,A,2022-10-17_14h26.28.579,psychopy,2022.2.4,60.08766788947518,
0,1,Images/Lake 2.jpg,1,6.3635,0.6280847881706122,0,1,1,1,,,,,,,,,,,,,,,,,,,,,,,,,0,0,0,0,,,,,,,,,0,8,8,6,,,,,,,,,,,,,1547.9466677000746,1548.4466021000408,,,,,,,,,,,,,,,,,,,,,,,,,,,,,,,,,,,,,,,,,,,,,,,,,,,,,,,,,,,,,,,,,,,,,,,,,,,,,,,,,,,,,,1547.4469603002071,1547.4469603002071,2,0,0.47329309955239296,,,,,,,,,,,,,,,sangjun,001,A,2022-10-17_14h26.28.579,psychopy,2022.2.4,60.08766788947518,
0,1,Images/Flowers 6.jpg,1,5.9556,0.947680247901311,0,1,1,1,,,,,,,,,,,,,,,,,,,,,,,,,0,0,0,0,,,,,,,,,0,9,9,1,,,,,,,,,,,,,1549.0133103001863,1549.5129184001125,,,,,,,,,,,,,,,,,,,,,,,,,,,,,,,,,,,,,,,,,,,,,,,,,,,,,,,,,,,,,,,,,,,,,,,,,,,,,,,,,,,,,,1548.4466021000408,1548.4466021000408,2,0,0.538028999697417,,,,,,,,,,,,,,,sangjun,001,A,2022-10-17_14h26.28.579,psychopy,2022.2.4,60.08766788947518,
0,1,Images/Bridge 1.jpg,1,5.9383,0.7280776864007487,0,1,1,1,,,,,,,,,,,,,,,,,,,,,,,,,0,0,0,0,,,,,,,,,0,10,10,10,,,,,,,,,,,,,1550.1638501002453,1550.6635834001936,,,,,,,,,,,,,,,,,,,,,,,,,,,,,,,,,,,,,,,,,,,,,,,,,,,,,,,,,,,,,,,,,,,,,,,,,,,,,,,,,,,,,,1549.5129184001125,1549.5129184001125,2,0,0.6318631996400654,,,,,,,,,,,,,,,sangjun,001,A,2022-10-17_14h26.28.579,psychopy,2022.2.4,60.08766788947518,
0,1,Images/Lake 12.jpg,1,6.4088,0.434259541522947,0,1,1,1,,,,,,,,,,,,,,,,,,,,,,,,,0,0,0,0,,,,,,,,,0,11,11,17,,,,,,,,,,,,,1551.2129966001958,1551.7137800003402,,,,,,,,,,,,,,,,,,,,,,,,,,,,,,,,,,,,,,,,,,,,,,,,,,,,,,,,,,,,,,,,,,,,,,,,,,,,,,,,,,,,,,1550.6635834001936,1550.6635834001936,2,0,0.5287321000359952,,,,,,,,,,,,,,,sangjun,001,A,2022-10-17_14h26.28.579,psychopy,2022.2.4,60.08766788947518,
0,1,Images/Hangover 1.jpg,2,2.3921,0.5202939654083889,0,1,1,1,,,,,,,,,,,,,,,,,,,,,,,,,0,0,0,0,,,,,,,,,0,12,12,5,,,,,,,,,,,,,1552.3299786001444,1552.845424500294,,,,,,,,,,,,,,,,,,,,,,,,,,,,,,,,,,,,,,,,,,,,,,,,,,,,,,,,,,,,,,,,,,,,,,,,,,,,,,,,,,,,,,1551.7137800003402,1551.7137800003402,1,0,0.5898290993645787,,,,,,,,,,,,,,,sangjun,001,A,2022-10-17_14h26.28.579,psychopy,2022.2.4,60.08766788947518,
0,1,Images/Lake 10.jpg,1,6.125,0.5595361608030758,0,1,1,1,,,,,,,,,,,,,,,,,,,,,,,,,0,0,0,0,,,,,,,,,0,13,13,4,,,,,,,,,,,,,1553.6137562002987,1554.1150408000685,,,,,,,,,,,,,,,,,,,,,,,,,,,,,,,,,,,,,,,,,,,,,,,,,,,,,,,,,,,,,,,,,,,,,,,,,,,,,,,,,,,,,,1552.845424500294,1552.845424500294,2,0,0.7390425996854901,,,,,,,,,,,,,,,sangjun,001,A,2022-10-17_14h26.28.579,psychopy,2022.2.4,60.08766788947518,
0,1,Images/Flowers 1.jpg,1,5.8142,0.5523292819921903,0,1,1,1,,,,,,,,,,,,,,,,,,,,,,,,,0,0,0,0,,,,,,,,,0,14,14,3,,,,,,,,,,,,,1554.7800553003326,1555.2809272999875,,,,,,,,,,,,,,,,,,,,,,,,,,,,,,,,,,,,,,,,,,,,,,,,,,,,,,,,,,,,,,,,,,,,,,,,,,,,,,,,,,,,,,1554.1150408000685,1554.1150408000685,2,0,0.6442820997908711,,,,,,,,,,,,,,,sangjun,001,A,2022-10-17_14h26.28.579,psychopy,2022.2.4,60.08766788947518,
0,1,Images/Car Accident 3.jpg,1,2.7945,0.0434178592037221,0,1,1,1,,,,,,,,,,,,,,,,,,,,,,,,,0,0,0,0,,,,,,,,,0,15,15,18,,,,,,,,,,,,,1556.3637350001372,1556.862866499927,,,,,,,,,,,,,,,,,,,,,,,,,,,,,,,,,,,,,,,,,,,,,,,,,,,,,,,,,,,,,,,,,,,,,,,,,,,,,,,,,,,,,,1555.2809272999875,1555.2809272999875,2,0,1.0638297996483743,,,,,,,,,,,,,,,sangjun,001,A,2022-10-17_14h26.28.579,psychopy,2022.2.4,60.08766788947518,
0,1,Images/Fireworks 3.jpg,1,6.0651,0.6482747677270315,0,1,1,1,,,,,,,,,,,,,,,,,,,,,,,,,0,0,0,0,,,,,,,,,0,16,16,7,,,,,,,,,,,,,1557.5137475999072,1558.0130563001148,,,,,,,,,,,,,,,,,,,,,,,,,,,,,,,,,,,,,,,,,,,,,,,,,,,,,,,,,,,,,,,,,,,,,,,,,,,,,,,,,,,,,,1556.862866499927,1556.862866499927,2,0,0.6257807994261384,,,,,,,,,,,,,,,sangjun,001,A,2022-10-17_14h26.28.579,psychopy,2022.2.4,60.08766788947518,
0,1,Images/Gun 6.jpg,1,2.9016,0.5624552116796375,0,1,1,1,,,,,,,,,,,,,,,,,,,,,,,,,0,0,0,0,,,,,,,,,0,17,17,2,,,,,,,,,,,,,1558.9967881003395,1559.4976031999104,,,,,,,,,,,,,,,,,,,,,,,,,,,,,,,,,,,,,,,,,,,,,,,,,,,,,,,,,,,,,,,,,,,,,,,,,,,,,,,,,,,,,,1558.0130563001148,1558.0130563001148,1,1,0.9542671996168792,,,,,,,,,,,,,,,sangjun,001,A,2022-10-17_14h26.28.579,psychopy,2022.2.4,60.08766788947518,
0,1,Images/Galaxy 2.jpg,1,5.7867,0.3193577863328001,0,1,1,1,,,,,,,,,,,,,,,,,,,,,,,,,0,0,0,0,,,,,,,,,0,18,18,11,,,,,,,,,,,,,1560.513505199924,1561.0151192001067,,,,,,,,,,,,,,,,,,,,,,,,,,,,,,,,,,,,,,,,,,,,,,,,,,,,,,,,,,,,,,,,,,,,,,,,,,,,,,,,,,,,,,1559.4976031999104,1559.4976031999104,2,0,0.9900823999196291,,,,,,,,,,,,,,,sangjun,001,A,2022-10-17_14h26.28.579,psychopy,2022.2.4,60.08766788947518,
0,1,Images/Elephant 1.jpg,2,5.8272,0.727686106610318,0,1,1,1,,,,,,,,,,,,,,,,,,,,,,,,,0,0,0,0,,,,,,,,,0,19,19,0,,,,,,,,,,,,,1561.7635306003504,1562.2635030001402,,,,,,,,,,,,,,,,,,,,,,,,,,,,,,,,,,,,,,,,,,,,,,,,,,,,,,,,,,,,,,,,,,,,,,,,,,,,,,,,,,,,,,1561.0151192001067,1561.0151192001067,1,0,0.7204933995380998,,,,,,,,,,,,,,,sangjun,001,A,2022-10-17_14h26.28.579,psychopy,2022.2.4,60.08766788947518,
0,1,Images/Tornado 1.jpg,1,2.1274,0.9789774589903122,0,1,1,1,,,,,,,,,,,,,,,,,,,,,,,,,0,0,0,0,,,,,,,,,,,,,0,0,0,16,,,,,,,,,1563.6967493002303,1564.1971460003406,,,,,,,,,,,,,,,,,,,,,,,,,,,,,,,,,,,,,,,,,,,,,,,,,,1562.2635030001402,1562.2635030001402,space,0.5611223997548223,,,,,,,,,,,,,,,,,,,,,,,,,,,,,,,,,,,,,,1562.8550102999434,1562.8550102999434,2,0,0.8171469997614622,,,,,,,,,,sangjun,001,A,2022-10-17_14h26.28.579,psychopy,2022.2.4,60.08766788947518,
0,1,Images/Wedding 6.jpg,2,6.0481,0.12578285099061193,0,1,1,1,,,,,,,,,,,,,,,,,,,,,,,,,0,0,0,0,,,,,,,,,,,,,0,1,1,11,,,,,,,,,1565.1969505003653,1565.6983913001604,,,,,,,,,,,,,,,,,,,,,,,,,,,,,,,,,,,,,,,,,,,,,,,,,,,,,,,,,,,,,,,,,,,,,,,,,,,,,,,,,,,,,,,,,,,1564.1971460003406,1564.1971460003406,1,0,0.9796835999004543,,,,,,,,,,sangjun,001,A,2022-10-17_14h26.28.579,psychopy,2022.2.4,60.08766788947518,
0,1,Images/Cold 8.jpg,1,5.5742,0.09933488783748268,0,1,1,1,,,,,,,,,,,,,,,,,,,,,,,,,0,0,0,0,,,,,,,,,,,,,0,2,2,10,,,,,,,,,1566.5975306001492,1567.1000810000114,,,,,,,,,,,,,,,,,,,,,,,,,,,,,,,,,,,,,,,,,,,,,,,,,,,,,,,,,,,,,,,,,,,,,,,,,,,,,,,,,,,,,,,,,,,1565.6983913001604,1565.6983913001604,2,0,0.87034219969064,,,,,,,,,,sangjun,001,A,2022-10-17_14h26.28.579,psychopy,2022.2.4,60.08766788947518,
0,1,Images/Cat 4.jpg,2,5.798,0.9372100198237938,0,1,1,1,,,,,,,,,,,,,,,,,,,,,,,,,0,0,0,0,,,,,,,,,,,,,0,3,3,18,,,,,,,,,1567.8629443002865,,,,,,,,,,,,,,,,,,,,,,,,,,,,,,,,,,,,,,,,,,,,,,,,,,,,,,,,,,,,,,,,,,,,,,,,,,,,,,,,,,,,,,,,,,,,1567.1000810000114,1567.1000810000114,1,0,0.7389301992952824,,,,,,,,,,sangjun,001,A,2022-10-17_14h26.28.579,psychopy,2022.2.4,60.08766788947518,
0,1,Images/Sleepy pose 1.jpg,2,2.603,0.5695928638932991,0,1,1,1,,,,,,,,,,,,,,,,,,,,,,,,,0,0,0,0,,,,,,,,,,,,,0,4,4,0,,,,,,,,,1568.963364600204,1569.4637951003388,,,,,,,,,,,,,,,,,,,,,,,,,,,,,,,,,,,,,,,,,,,,,,,,,,,,,,,,,,,,,,,,,,,,,,,,,,,,,,,,,,,,,,,,,,,1568.3631613999605,1568.3631613999605,1,0,0.5727094993926585,,,,,,,,,,sangjun,001,A,2022-10-17_14h26.28.579,psychopy,2022.2.4,60.08766788947518,
0,1,Images/Wedding 2.jpg,2,5.7601,0.5638941834844101,0,1,1,1,,,,,,,,,,,,,,,,,,,,,,,,,0,0,0,0,,,,,,,,,,,,,0,5,5,17,,,,,,,,,1570.2800660002977,1570.78184590023,,,,,,,,,,,,,,,,,,,,,,,,,,,,,,,,,,,,,,,,,,,,,,,,,,,,,,,,,,,,,,,,,,,,,,,,,,,,,,,,,,,,,,,,,,,1569.4637951003388,1569.4637951003388,1,0,0.7927258992567658,,,,,,,,,,sangjun,001,A,2022-10-17_14h26.28.579,psychopy,2022.2.4,60.08766788947518,
0,1,Images/Flowers 1.jpg,1,5.8142,0.503281834412867,0,1,1,1,,,,,,,,,,,,,,,,,,,,,,,,,0,0,0,0,,,,,,,,,,,,,0,6,6,5,,,,,,,,,1572.8463651002385,1573.3464176999405,,,,,,,,,,,,,,,,,,,,,,,,,,,,,,,,,,,,,,,,,,,,,,,,,,,,,,,,,,,,,,,,,,,,,,,,,,,,,,,,,,,,,,,,,,,1570.78184590023,1570.78184590023,2,0,2.034768299665302,,,,,,,,,,sangjun,001,A,2022-10-17_14h26.28.579,psychopy,2022.2.4,60.08766788947518,
0,1,Images/Fireworks 2.jpg,1,6.277,0.6055150196406405,0,1,1,1,,,,,,,,,,,,,,,,,,,,,,,,,0,0,0,0,,,,,,,,,,,,,0,7,7,1,,,,,,,,,1574.0969068999402,1574.5966443000361,,,,,,,,,,,,,,,,,,,,,,,,,,,,,,,,,,,,,,,,,,,,,,,,,,,,,,,,,,,,,,,,,,,,,,,,,,,,,,,,,,,,,,,,,,,1573.3464176999405,1573.3464176999405,2,0,0.7249805997125804,,,,,,,,,,sangjun,001,A,2022-10-17_14h26.28.579,psychopy,2022.2.4,60.08766788947518,
0,1,Images/Excited face 2.jpg,2,5.8009,0.4654741506832626,0,1,1,1,,,,,,,,,,,,,,,,,,,,,,,,,0,0,0,0,,,,,,,,,,,,,0,8,8,14,,,,,,,,,1575.2964095002972,1575.7983055002987,,,,,,,,,,,,,,,,,,,,,,,,,,,,,,,,,,,,,,,,,,,,,,,,,,,,,,,,,,,,,,,,,,,,,,,,,,,,,,,,,,,,,,,,,,,1574.5966443000361,1574.5966443000361,1,0,0.6756617994979024,,,,,,,,,,sangjun,001,A,2022-10-17_14h26.28.579,psychopy,2022.2.4,60.08766788947518,
0,1,Images/Beach 2.jpg,1,6.2944,0.9995304220425305,0,1,1,1,,,,,,,,,,,,,,,,,,,,,,,,,0,0,0,0,,,,,,,,,,,,,0,9,9,19,,,,,,,,,1576.9794735000469,1577.4808545000851,,,,,,,,,,,,,,,,,,,,,,,,,,,,,,,,,,,,,,,,,,,,,,,,,,,,,,,,,,,,,,,,,,,,,,,,,,,,,,,,,,,,,,,,,,,1575.7983055002987,1575.7983055002987,2,0,1.1542918994091451,,,,,,,,,,sangjun,001,A,2022-10-17_14h26.28.579,psychopy,2022.2.4,60.08766788947518,
0,1,Images/Sad pose 4.jpg,2,2.8282,0.6332941131495494,0,1,1,1,,,,,,,,,,,,,,,,,,,,,,,,,0,0,0,0,,,,,,,,,,,,,0,10,10,6,,,,,,,,,1578.9135512001812,1579.412934300024,,,,,,,,,,,,,,,,,,,,,,,,,,,,,,,,,,,,,,,,,,,,,,,,,,,,,,,,,,,,,,,,,,,,,,,,,,,,,,,,,,,,,,,,,,,1577.4808545000851,1577.4808545000851,1,0,1.4157637995667756,,,,,,,,,,sangjun,001,A,2022-10-17_14h26.28.579,psychopy,2022.2.4,60.08766788947518,
0,1,Images/Baby 5.jpg,2,6.1553,0.727386849229867,0,1,1,1,,,,,,,,,,,,,,,,,,,,,,,,,0,0,0,0,,,,,,,,,,,,,0,11,11,9,,,,,,,,,1579.9963483000174,1580.4968725000508,,,,,,,,,,,,,,,,,,,,,,,,,,,,,,,,,,,,,,,,,,,,,,,,,,,,,,,,,,,,,,,,,,,,,,,,,,,,,,,,,,,,,,,,,,,1579.412934300024,1579.412934300024,1,0,0.5631885998882353,,,,,,,,,,sangjun,001,A,2022-10-17_14h26.28.579,psychopy,2022.2.4,60.08766788947518,
0,1,Images/Snake 4.jpg,2,2.4159,0.2912919094636932,0,1,1,1,,,,,,,,,,,,,,,,,,,,,,,,,0,0,0,0,,,,,,,,,,,,,0,12,12,8,,,,,,,,,1581.747376000043,1582.249014500063,,,,,,,,,,,,,,,,,,,,,,,,,,,,,,,,,,,,,,,,,,,,,,,,,,,,,,,,,,,,,,,,,,,,,,,,,,,,,,,,,,,,,,,,,,,1580.4968725000508,1580.4968725000508,1,0,1.230616399552673,,,,,,,,,,sangjun,001,A,2022-10-17_14h26.28.579,psychopy,2022.2.4,60.08766788947518,
0,1,Images/Miserable pose 4.jpg,2,2.5702,0.44043728161656215,0,1,1,1,,,,,,,,,,,,,,,,,,,,,,,,,0,0,0,0,,,,,,,,,,,,,0,13,13,12,,,,,,,,,1582.7796853003092,1583.2809967002831,,,,,,,,,,,,,,,,,,,,,,,,,,,,,,,,,,,,,,,,,,,,,,,,,,,,,,,,,,,,,,,,,,,,,,,,,,,,,,,,,,,,,,,,,,,1582.249014500063,1582.249014500063,1,0,0.5026374999433756,,,,,,,,,,sangjun,001,A,2022-10-17_14h26.28.579,psychopy,2022.2.4,60.08766788947518,
0,1,Images/Dancing 7.jpg,2,5.8813,0.47319774545395477,0,1,1,1,,,,,,,,,,,,,,,,,,,,,,,,,0,0,0,0,,,,,,,,,,,,,0,14,14,13,,,,,,,,,1583.9137387000956,1584.4142718003131,,,,,,,,,,,,,,,,,,,,,,,,,,,,,,,,,,,,,,,,,,,,,,,,,,,,,,,,,,,,,,,,,,,,,,,,,,,,,,,,,,,,,,,,,,,1583.2809967002831,1583.2809967002831,1,0,0.6074981996789575,,,,,,,,,,sangjun,001,A,2022-10-17_14h26.28.579,psychopy,2022.2.4,60.08766788947518,
0,1,Images/Dog 18.jpg,2,6.1614,0.5901309586256887,0,1,1,1,,,,,,,,,,,,,,,,,,,,,,,,,0,0,0,0,,,,,,,,,,,,,0,15,15,15,,,,,,,,,1585.063518400304,1585.5632660002448,,,,,,,,,,,,,,,,,,,,,,,,,,,,,,,,,,,,,,,,,,,,,,,,,,,,,,,,,,,,,,,,,,,,,,,,,,,,,,,,,,,,,,,,,,,1584.4142718003131,1584.4142718003131,1,0,0.6177039998583496,,,,,,,,,,sangjun,001,A,2022-10-17_14h26.28.579,psychopy,2022.2.4,60.08766788947518,
0,1,Images/Mother 1.jpg,2,6.0784,0.30943906106936125,0,1,1,1,,,,,,,,,,,,,,,,,,,,,,,,,0,0,0,0,,,,,,,,,,,,,0,16,16,4,,,,,,,,,1586.130184000358,1586.6322131003253,,,,,,,,,,,,,,,,,,,,,,,,,,,,,,,,,,,,,,,,,,,,,,,,,,,,,,,,,,,,,,,,,,,,,,,,,,,,,,,,,,,,,,,,,,,1585.5632660002448,1585.5632660002448,1,0,0.5419271998107433,,,,,,,,,,sangjun,001,A,2022-10-17_14h26.28.579,psychopy,2022.2.4,60.08766788947518,
0,1,Images/Lake 3.jpg,1,5.9732,0.6891933661322509,0,1,1,1,,,,,,,,,,,,,,,,,,,,,,,,,0,0,0,0,,,,,,,,,,,,,0,17,17,2,,,,,,,,,1587.2631103000604,1587.7627894002944,,,,,,,,,,,,,,,,,,,,,,,,,,,,,,,,,,,,,,,,,,,,,,,,,,,,,,,,,,,,,,,,,,,,,,,,,,,,,,,,,,,,,,,,,,,1586.6322131003253,1586.6322131003253,2,0,0.607392099685967,,,,,,,,,,sangjun,001,A,2022-10-17_14h26.28.579,psychopy,2022.2.4,60.08766788947518,
0,1,Images/Angry face 3.jpg,2,2.5188,0.9422085734809273,0,1,1,1,,,,,,,,,,,,,,,,,,,,,,,,,0,0,0,0,,,,,,,,,,,,,0,18,18,7,,,,,,,,,1588.3963673003018,,,,,,,,,,,,,,,,,,,,,,,,,,,,,,,,,,,,,,,,,,,,,,,,,,,,,,,,,,,,,,,,,,,,,,,,,,,,,,,,,,,,,,,,,,,,1587.7627894002944,1587.7627894002944,1,0,0.6137404995970428,,,,,,,,,,sangjun,001,A,2022-10-17_14h26.28.579,psychopy,2022.2.4,60.08766788947518,
0,1,Images/Bloody knife 1.jpg,1,1.8704,0.45545292684693384,0,1,1,1,,,,,,,,,,,,,,,,,,,,,,,,,0,0,0,0,,,,,,,,,,,,,0,19,19,3,,,,,,,,,1589.5301010003313,1590.0301511003636,,,,,,,,,,,,,,,,,,,,,,,,,,,,,,,,,,,,,,,,,,,,,,,,,,,,,,,,,,,,,,,,,,,,,,,,,,,,,,,,,,,,,,,,,,,1588.901483300142,1588.901483300142,2,0,0.6030217995867133,,,,,,,,,,sangjun,001,A,2022-10-17_14h26.28.579,psychopy,2022.2.4,60.08766788947518,
0,1,Images/Rainbow 1.jpg,1,6.2286,0.5870321768895581,0,1,1,1,,,,,,,,,,,,,,,,,,,,,,,,,0,0,0,0,,,,,,,,,,,,,,,,,0,0,0,8,,,,,1591.5301655000076,1592.031516900286,,,,,,,,,,,,,,,,,,,,,,,,,,,,,,,,,,,,,,,,,,,,,,,,,,1590.0301511003636,1590.0301511003636,space,0.5538951996713877,,,,,,,,,,,,,,,,,,,,,,,,,,,,,,,,,,,,,,,,,,,1590.6220247000456,1590.6220247000456,2,0,0.8818983999080956,,,,,sangjun,001,A,2022-10-17_14h26.28.579,psychopy,2022.2.4,60.08766788947518,
0,1,Images/Destruction 10.jpg,1,2.0682,0.30995496066927364,0,1,1,1,,,,,,,,,,,,,,,,,,,,,,,,,0,0,0,0,,,,,,,,,,,,,,,,,0,1,1,9,,,,,1592.6130470000207,,,,,,,,,,,,,,,,,,,,,,,,,,,,,,,,,,,,,,,,,,,,,,,,,,,,,,,,,,,,,,,,,,,,,,,,,,,,,,,,,,,,,,,,,,,,,,,,,1592.031516900286,1592.031516900286,2,0,0.5519964997656643,,,,,sangjun,001,A,2022-10-17_14h26.28.579,psychopy,2022.2.4,60.08766788947518,
0,1,Images/Dirt 1.jpg,1,1.6168,0.8641851555207473,0,1,1,1,,,,,,,,,,,,,,,,,,,,,,,,,0,0,0,0,,,,,,,,,,,,,,,,,0,2,2,0,,,,,1593.5469837002456,1594.0464560999535,,,,,,,,,,,,,,,,,,,,,,,,,,,,,,,,,,,,,,,,,,,,,,,,,,,,,,,,,,,,,,,,,,,,,,,,,,,,,,,,,,,,,,,,,,,,,,,,1593.1153831002302,1593.1153831002302,2,0,0.40418910002335906,,,,,sangjun,001,A,2022-10-17_14h26.28.579,psychopy,2022.2.4,60.08766788947518,
0,1,Images/Frustrated pose 5.jpg,2,2.481,0.9455762268937861,0,1,1,1,,,,,,,,,,,,,,,,,,,,,,,,,0,0,0,0,,,,,,,,,,,,,,,,,0,3,3,10,,,,,1594.9632528000511,1595.4632466002367,,,,,,,,,,,,,,,,,,,,,,,,,,,,,,,,,,,,,,,,,,,,,,,,,,,,,,,,,,,,,,,,,,,,,,,,,,,,,,,,,,,,,,,,,,,,,,,,1594.0464560999535,1594.0464560999535,1,0,0.8893970996141434,,,,,sangjun,001,A,2022-10-17_14h26.28.579,psychopy,2022.2.4,60.08766788947518,
0,1,Images/Injury 1.jpg,2,1.9865,0.37974117050869616,0,1,1,1,,,,,,,,,,,,,,,,,,,,,,,,,0,0,0,0,,,,,,,,,,,,,,,,,0,4,4,13,,,,,1596.84693050012,1597.3467765999958,,,,,,,,,,,,,,,,,,,,,,,,,,,,,,,,,,,,,,,,,,,,,,,,,,,,,,,,,,,,,,,,,,,,,,,,,,,,,,,,,,,,,,,,,,,,,,,,1595.4632466002367,1595.4632466002367,1,0,1.3609784999862313,,,,,sangjun,001,A,2022-10-17_14h26.28.579,psychopy,2022.2.4,60.08766788947518,
0,1,Images/Injury 4.jpg,2,1.4052,0.9002331061243214,0,1,1,1,,,,,,,,,,,,,,,,,,,,,,,,,0,0,0,0,,,,,,,,,,,,,,,,,0,5,5,12,,,,,1597.9794100001454,1598.4795691999607,,,,,,,,,,,,,,,,,,,,,,,,,,,,,,,,,,,,,,,,,,,,,,,,,,,,,,,,,,,,,,,,,,,,,,,,,,,,,,,,,,,,,,,,,,,,,,,,1597.3467765999958,1597.3467765999958,1,0,0.6048387996852398,,,,,sangjun,001,A,2022-10-17_14h26.28.579,psychopy,2022.2.4,60.08766788947518,
0,1,Images/Jail 5.jpg,1,3.0599,0.9658964890878704,0,1,1,1,,,,,,,,,,,,,,,,,,,,,,,,,0,0,0,0,,,,,,,,,,,,,,,,,0,6,6,7,,,,,1599.5131916999817,1600.013028500136,,,,,,,,,,,,,,,,,,,,,,,,,,,,,,,,,,,,,,,,,,,,,,,,,,,,,,,,,,,,,,,,,,,,,,,,,,,,,,,,,,,,,,,,,,,,,,,,1598.4795691999607,1598.4795691999607,2,0,1.0156819997355342,,,,,sangjun,001,A,2022-10-17_14h26.28.579,psychopy,2022.2.4,60.08766788947518,
0,1,Images/Weapon 1.jpg,1,2.8209,0.7627649561152614,0,1,1,1,,,,,,,,,,,,,,,,,,,,,,,,,0,0,0,0,,,,,,,,,,,,,,,,,0,7,7,16,,,,,1600.7469792999327,1601.2472189003602,,,,,,,,,,,,,,,,,,,,,,,,,,,,,,,,,,,,,,,,,,,,,,,,,,,,,,,,,,,,,,,,,,,,,,,,,,,,,,,,,,,,,,,,,,,,,,,,1600.013028500136,1600.013028500136,2,0,0.7070638998411596,,,,,sangjun,001,A,2022-10-17_14h26.28.579,psychopy,2022.2.4,60.08766788947518,
0,1,Images/Flowers 7.jpg,1,5.7452,0.9660849882191923,0,1,1,1,,,,,,,,,,,,,,,,,,,,,,,,,0,0,0,0,,,,,,,,,,,,,,,,,0,8,8,14,,,,,1601.929647500161,1602.429749800358,,,,,,,,,,,,,,,,,,,,,,,,,,,,,,,,,,,,,,,,,,,,,,,,,,,,,,,,,,,,,,,,,,,,,,,,,,,,,,,,,,,,,,,,,,,,,,,,1601.2472189003602,1601.2472189003602,2,0,0.6642785998992622,,,,,sangjun,001,A,2022-10-17_14h26.28.579,psychopy,2022.2.4,60.08766788947518,
0,1,Images/Scared face 3.jpg,2,3.0377,0.7014743464246805,0,1,1,1,,,,,,,,,,,,,,,,,,,,,,,,,0,0,0,0,,,,,,,,,,,,,,,,,0,9,9,5,,,,,1603.2801282000728,1603.7819288000464,,,,,,,,,,,,,,,,,,,,,,,,,,,,,,,,,,,,,,,,,,,,,,,,,,,,,,,,,,,,,,,,,,,,,,,,,,,,,,,,,,,,,,,,,,,,,,,,1602.429749800358,1602.429749800358,1,0,0.8186492999084294,,,,,sangjun,001,A,2022-10-17_14h26.28.579,psychopy,2022.2.4,60.08766788947518,
0,1,Images/Cat 5.jpg,2,6.1842,0.925145681368713,0,1,1,1,,,,,,,,,,,,,,,,,,,,,,,,,0,0,0,0,,,,,,,,,,,,,,,,,0,10,10,4,,,,,1604.530156900175,1605.0321896001697,,,,,,,,,,,,,,,,,,,,,,,,,,,,,,,,,,,,,,,,,,,,,,,,,,,,,,,,,,,,,,,,,,,,,,,,,,,,,,,,,,,,,,,,,,,,,,,,1603.7819288000464,1603.7819288000464,1,0,0.7291769995354116,,,,,sangjun,001,A,2022-10-17_14h26.28.579,psychopy,2022.2.4,60.08766788947518,
0,1,Images/Destruction 5.jpg,1,2.1143,0.8473229050515173,0,1,1,1,,,,,,,,,,,,,,,,,,,,,,,,,0,0,0,0,,,,,,,,,,,,,,,,,0,11,11,1,,,,,1605.7801820002496,1606.280456600245,,,,,,,,,,,,,,,,,,,,,,,,,,,,,,,,,,,,,,,,,,,,,,,,,,,,,,,,,,,,,,,,,,,,,,,,,,,,,,,,,,,,,,,,,,,,,,,,1605.0321896001697,1605.0321896001697,2,0,0.71930589992553,,,,,sangjun,001,A,2022-10-17_14h26.28.579,psychopy,2022.2.4,60.08766788947518,
0,1,Images/Tornado 4.jpg,1,2.7192,0.04936946157030331,0,1,1,1,,,,,,,,,,,,,,,,,,,,,,,,,0,0,0,0,,,,,,,,,,,,,,,,,0,12,12,2,,,,,1607.5628553000279,1608.0635760999285,,,,,,,,,,,,,,,,,,,,,,,,,,,,,,,,,,,,,,,,,,,,,,,,,,,,,,,,,,,,,,,,,,,,,,,,,,,,,,,,,,,,,,,,,,,,,,,,1606.280456600245,1606.280456600245,2,0,1.2629561992362142,,,,,sangjun,001,A,2022-10-17_14h26.28.579,psychopy,2022.2.4,60.08766788947518,
0,1,Images/Galaxy 4.jpg,1,5.4342,0.2625751180628706,0,1,1,1,,,,,,,,,,,,,,,,,,,,,,,,,0,0,0,0,,,,,,,,,,,,,,,,,0,13,13,18,,,,,1608.546837599948,1609.0495339999907,,,,,,,,,,,,,,,,,,,,,,,,,,,,,,,,,,,,,,,,,,,,,,,,,,,,,,,,,,,,,,,,,,,,,,,,,,,,,,,,,,,,,,,,,,,,,,,,1608.0635760999285,1608.0635760999285,2,0,0.456275999546051,,,,,sangjun,001,A,2022-10-17_14h26.28.579,psychopy,2022.2.4,60.08766788947518,
0,1,Images/Nature 1.jpg,1,6.1726,0.09242055576694541,0,1,1,1,,,,,,,,,,,,,,,,,,,,,,,,,0,0,0,0,,,,,,,,,,,,,,,,,0,14,14,17,,,,,1609.4801524002105,,,,,,,,,,,,,,,,,,,,,,,,,,,,,,,,,,,,,,,,,,,,,,,,,,,,,,,,,,,,,,,,,,,,,,,,,,,,,,,,,,,,,,,,,,,,,,,,,1609.0495339999907,1609.0495339999907,2,0,0.4054076997563243,,,,,sangjun,001,A,2022-10-17_14h26.28.579,psychopy,2022.2.4,60.08766788947518,
0,1,Images/Wedding 4.jpg,1,5.8256,0.3567295715186031,0,1,1,1,,,,,,,,,,,,,,,,,,,,,,,,,0,0,0,0,,,,,,,,,,,,,,,,,0,15,15,19,,,,,1610.7303857002407,1611.2298564999364,,,,,,,,,,,,,,,,,,,,,,,,,,,,,,,,,,,,,,,,,,,,,,,,,,,,,,,,,,,,,,,,,,,,,,,,,,,,,,,,,,,,,,,,,,,,,,,,1609.9797678003088,1609.9797678003088,2,0,0.7314340993762016,,,,,sangjun,001,A,2022-10-17_14h26.28.579,psychopy,2022.2.4,60.08766788947518,
0,1,Images/Bird 1.jpg,2,5.9051,0.023528844380171776,0,1,1,1,,,,,,,,,,,,,,,,,,,,,,,,,0,0,0,0,,,,,,,,,,,,,,,,,0,16,16,15,,,,,1612.1965601001866,1612.6974889999256,,,,,,,,,,,,,,,,,,,,,,,,,,,,,,,,,,,,,,,,,,,,,,,,,,,,,,,,,,,,,,,,,,,,,,,,,,,,,,,,,,,,,,,,,,,,,,,,1611.2298564999364,1611.2298564999364,1,0,0.9463561996817589,,,,,sangjun,001,A,2022-10-17_14h26.28.579,psychopy,2022.2.4,60.08766788947518,
0,1,Images/Dog 19.jpg,2,5.9814,0.19321400487729756,0,1,1,1,,,,,,,,,,,,,,,,,,,,,,,,,0,0,0,0,,,,,,,,,,,,,,,,,0,17,17,11,,,,,1613.2137186001055,1613.7142952000722,,,,,,,,,,,,,,,,,,,,,,,,,,,,,,,,,,,,,,,,,,,,,,,,,,,,,,,,,,,,,,,,,,,,,,,,,,,,,,,,,,,,,,,,,,,,,,,,1612.6974889999256,1612.6974889999256,1,0,0.4948521996848285,,,,,sangjun,001,A,2022-10-17_14h26.28.579,psychopy,2022.2.4,60.08766788947518,
0,1,Images/Frustrated pose 1.jpg,2,2.3937,0.03736251433619431,0,1,1,1,,,,,,,,,,,,,,,,,,,,,,,,,0,0,0,0,,,,,,,,,,,,,,,,,0,18,18,3,,,,,1614.3135017999448,1614.8167465003207,,,,,,,,,,,,,,,,,,,,,,,,,,,,,,,,,,,,,,,,,,,,,,,,,,,,,,,,,,,,,,,,,,,,,,,,,,,,,,,,,,,,,,,,,,,,,,,,1613.7142952000722,1613.7142952000722,1,0,0.5816984996199608,,,,,sangjun,001,A,2022-10-17_14h26.28.579,psychopy,2022.2.4,60.08766788947518,
0,1,Images/Gun 10.jpg,1,2.5934,0.6500433630452547,0,1,1,1,,,,,,,,,,,,,,,,,,,,,,,,,0,0,0,0,,,,,,,,,,,,,,,,,0,19,19,6,,,,,1615.4135700003244,1615.9132862002589,,,,,,,,,,,,,,,,,,,,,,,,,,,,,,,,,,,,,,,,,,,,,,,,,,,,,,,,,,,,,,,,,,,,,,,,,,,,,,,,,,,,,,,,,,,,,,,,1614.8167465003207,1614.8167465003207,2,0,0.5677900994196534,,,,,sangjun,001,A,2022-10-17_14h26.28.579,psychopy,2022.2.4,60.08766788947518,
0,1,,,,,0,1,1,1,,,,,,,,,,,,,,,,,,,,,,,,,0,0,0,0,,,,,,,,,,,,,,,,,,,,,,,,,,,,,,,,,,,,,,,,,,,,,,,,,,,,,,,,,,,,,,,,,,,,,,,,,,,,,,,,,,,,,,,,,,,,,,,,,,,,,,,,,,,,,,,,,,,,,,,,,,,,,,,,,,,sangjun,001,A,2022-10-17_14h26.28.579,psychopy,2022.2.4,60.08766788947518,
,,,,,,,,,,,,,,,,,,,,,,,,,,,,,,,,,,,,,,,,,,,,,,,,,,,,,,,,,,,,,,,,,,,,,,,,,,,,,,,,,,,,,,,,,,,,,,,,,,,,,,,,,,,,,,,,,,,,,,,,,,,,,,,,,,,,,,,,,,,,,,,,,,,,,,,,,,,,,,,,,,,,1615.9132862002589,1615.9132862002589,space,14.542628299910575,sangjun,001,A,2022-10-17_14h26.28.579,psychopy,2022.2.4,60.08766788947518,
